,actuators_speed_cmd__data,sensors_imu_data_raw__angular_velocity_x,sensors_imu_data_raw__angular_velocity_y,sensors_imu_data_raw__angular_velocity_z,sensors_imu_data_raw__header_seq,sensors_imu_data_raw__header_stamp_nsecs,sensors_imu_data_raw__header_stamp_secs,sensors_imu_data_raw__linear_acceleration_x,sensors_imu_data_raw__linear_acceleration_y,sensors_imu_data_raw__linear_acceleration_z,sensors_imu_data_raw__magnetometer_x,sensors_imu_data_raw__magnetometer_y,sensors_imu_data_raw__magnetometer_z
1412183550.5490832,20.0,-0.038350656628608704,-0.012783551588654518,-0.02130592055618763,972282.0,548415093.0,1412183550.0,0.9810000658035278,0.70632004737854,10.320120811462402,0.07430385053157806,0.7614557147026062,-0.0793844610452652
1412183550.5587506,20.0,-0.038350656628608704,-0.013848847709596157,-0.02130592055618763,972283.0,558409057.0,1412183550.0,0.3139200210571289,1.1379600763320923,10.673280715942383,0.06604786962270737,0.7646310925483704,-0.08382999151945114
1412183550.5685449,20.0,-0.038350656628608704,-0.011718256399035454,-0.02130592055618763,972285.0,578454297.0,1412183550.0,1.1772000789642334,0.6670800447463989,10.2416410446167,0.06604786962270737,0.7716169357299805,-0.08510013669729233
1412183550.5787966,20.0,-0.03941595181822777,-0.011718256399035454,-0.019175328314304352,972286.0,588356391.0,1412183550.0,0.9417600631713867,0.5886000394821167,10.28088092803955,0.0711284726858139,0.7703468203544617,-0.08001953363418579
1412183550.5885575,20.0,-0.038350656628608704,-0.010652960278093815,-0.020240623503923416,972288.0,608539424.0,1412183550.0,0.39240002632141113,0.7848000526428223,10.59480094909668,0.06604786962270737,0.7671714425086975,-0.08255983889102936
1412183550.5987148,20.0,-0.038350656628608704,-0.011718256399035454,-0.019175328314304352,972289.0,618517569.0,1412183550.0,0.7848000526428223,0.8632800579071045,10.673280715942383,0.06604786962270737,0.7671714425086975,-0.08255983889102936
1412183550.608752,20.0,-0.038350656628608704,-0.011718256399035454,-0.02130592055618763,972291.0,638469819.0,1412183550.0,0.7455600500106812,0.9810000658035278,10.830240249633789,0.06922324746847153,0.7614557147026062,-0.08255983889102936
1412183550.618745,20.0,-0.038350656628608704,-0.011718256399035454,-0.020240623503923416,972292.0,648434108.0,1412183550.0,1.0987200736999512,0.6278400421142578,9.84924030303955,0.07049340009689331,0.7563751339912415,-0.08382999151945114
1412183550.6285655,20.0,-0.038350656628608704,-0.011718256399035454,-0.020240623503923416,972293.0,658342706.0,1412183550.0,1.1772000789642334,1.05948007106781,10.398600578308105,0.07049340009689331,0.7563751339912415,-0.08382999151945114
1412183550.6386976,20.0,-0.038350656628608704,-0.012783551588654518,-0.020240623503923416,972295.0,678323685.0,1412183550.0,1.2164400815963745,0.70632004737854,10.359360694885254,0.06541279703378677,0.7716169357299805,-0.08255983889102936
1412183550.6487126,20.0,-0.038350656628608704,-0.011718256399035454,-0.020240623503923416,972296.0,688451058.0,1412183550.0,0.6670800447463989,1.3341600894927979,10.830240249633789,0.06668294221162796,0.7608206868171692,-0.08510013669729233
1412183550.658692,20.0,-0.038350656628608704,-0.011718256399035454,-0.020240623503923416,972298.0,708581369.0,1412183550.0,0.5886000394821167,0.7455600500106812,10.869481086730957,0.06922324746847153,0.7595505118370056,-0.08192475885152817
1412183550.6688883,20.0,-0.038350656628608704,-0.012783551588654518,-0.020240623503923416,972299.0,718393519.0,1412183550.0,0.2746800184249878,1.1772000789642334,10.673280715942383,0.05715681239962578,0.7716169357299805,-0.08319491147994995
1412183550.6785905,20.0,-0.03728536143898964,-0.012783551588654518,-0.019175328314304352,972301.0,738420188.0,1412183550.0,0.9417600631713867,0.7455600500106812,10.320120811462402,0.07049340009689331,0.7614557147026062,-0.08065461367368698
1412183550.6886659,20.0,-0.038350656628608704,-0.012783551588654518,-0.019175328314304352,972302.0,748337624.0,1412183550.0,0.7848000526428223,1.1379600763320923,10.202400207519531,0.07049340009689331,0.7614557147026062,-0.08065461367368698
1412183550.6986883,20.0,-0.038350656628608704,-0.011718256399035454,-0.020240623503923416,972304.0,768269803.0,1412183550.0,0.7455600500106812,1.2164400815963745,10.751760482788086,0.0635075643658638,0.7697117328643799,-0.08510013669729233
1412183550.7088165,20.0,-0.03728536143898964,-0.012783551588654518,-0.02130592055618763,972305.0,778574840.0,1412183550.0,0.8240400552749634,0.6278400421142578,10.320120811462402,0.07557400315999985,0.7595505118370056,-0.08255983889102936
1412183550.7186878,20.0,-0.038350656628608704,-0.011718256399035454,-0.020240623503923416,972307.0,798418664.0,1412183550.0,1.0987200736999512,0.70632004737854,10.16316032409668,0.07620908319950104,0.7595505118370056,-0.08446506410837173
1412183550.728414,20.0,-0.03728536143898964,-0.011718256399035454,-0.022371215745806694,972308.0,808653424.0,1412183550.0,0.8632800579071045,0.5493600368499756,10.359360694885254,0.06541279703378677,0.7671714425086975,-0.08446506410837173
1412183550.7387164,20.0,-0.03941595181822777,-0.011718256399035454,-0.019175328314304352,972309.0,818379087.0,1412183550.0,0.39240002632141113,1.2556800842285156,10.94796085357666,0.07303370535373688,0.7671714425086975,-0.08255983889102936
1412183550.748555,20.0,-0.038350656628608704,-0.011718256399035454,-0.019175328314304352,972311.0,838442388.0,1412183550.0,0.8632800579071045,0.7848000526428223,10.634040832519531,0.06477771699428558,0.7671714425086975,-0.08128968626260757
1412183550.7585106,20.0,-0.038350656628608704,-0.011718256399035454,-0.019175328314304352,972312.0,848420949.0,1412183550.0,1.020240068435669,0.8632800579071045,10.477080345153809,0.06604786962270737,0.7595505118370056,-0.08192475885152817
1412183550.7684686,20.0,-0.038350656628608704,-0.012783551588654518,-0.022371215745806694,972314.0,868220011.0,1412183550.0,1.41264009475708,0.8240400552749634,10.28088092803955,0.07430385053157806,0.7614557147026062,-0.08065461367368698
1412183550.7788067,20.0,-0.038350656628608704,-0.013848847709596157,-0.02130592055618763,972315.0,878313342.0,1412183550.0,1.0987200736999512,0.47088003158569336,10.320120811462402,0.07366877794265747,0.7697117328643799,-0.08128968626260757
1412183550.78868,20.0,-0.038350656628608704,-0.012783551588654518,-0.020240623503923416,972317.0,898656136.0,1412183550.0,0.5101200342178345,0.9417600631713867,10.59480094909668,0.06604786962270737,0.758280336856842,-0.08382999151945114
1412183550.7986474,20.0,-0.03728536143898964,-0.012783551588654518,-0.020240623503923416,972318.0,908302360.0,1412183550.0,0.6278400421142578,0.5493600368499756,9.966960906982422,0.06604786962270737,0.758280336856842,-0.08382999151945114
1412183550.8089492,20.0,-0.03941595181822777,-0.012783551588654518,-0.02130592055618763,972320.0,928373320.0,1412183550.0,0.07848000526428223,0.9810000658035278,10.359360694885254,0.07747923582792282,0.7722520232200623,-0.08319491147994995
1412183550.818645,20.0,-0.04048124700784683,-0.011718256399035454,-0.020240623503923416,972321.0,938311251.0,1412183550.0,0.3139200210571289,0.8632800579071045,10.555561065673828,0.07557400315999985,0.7665363550186157,-0.08382999151945114
1412183550.8285613,20.0,-0.038350656628608704,-0.012783551588654518,-0.020240623503923416,972322.0,948187058.0,1412183550.0,0.2746800184249878,0.70632004737854,10.712520599365234,0.0717635527253151,0.7659012675285339,-0.08192475885152817
1412183550.838685,20.0,-0.03941595181822777,-0.011718256399035454,-0.020240623503923416,972324.0,968420702.0,1412183550.0,0.3139200210571289,1.05948007106781,10.830240249633789,0.06795309484004974,0.7659012675285339,-0.08510013669729233
1412183550.848618,20.0,-0.03728536143898964,-0.012783551588654518,-0.019175328314304352,972325.0,978283622.0,1412183550.0,0.5493600368499756,0.8632800579071045,10.437840461730957,0.06477771699428558,0.7589154243469238,-0.0793844610452652
1412183550.858794,20.0,-0.038350656628608704,-0.011718256399035454,-0.02130592055618763,972327.0,998227891.0,1412183550.0,1.2556800842285156,0.7455600500106812,9.966960906982422,0.0717635527253151,0.7589154243469238,-0.08255983889102936
1412183550.8683827,20.0,-0.038350656628608704,-0.011718256399035454,-0.020240623503923416,972328.0,8298425.0,1412183551.0,0.7455600500106812,1.0987200736999512,10.59480094909668,0.07366877794265747,0.7678064703941345,-0.08192475885152817
1412183550.8785095,20.0,-0.038350656628608704,-0.013848847709596157,-0.02130592055618763,972330.0,28453037.0,1412183551.0,0.47088003158569336,1.4911201000213623,10.555561065673828,0.06858817487955093,0.7627258896827698,-0.08382999151945114
1412183550.8885627,20.0,-0.038350656628608704,-0.012783551588654518,-0.02130592055618763,972331.0,38317200.0,1412183551.0,0.43164002895355225,0.9025200605392456,10.673280715942383,0.06858817487955093,0.7627258896827698,-0.08382999151945114
1412183550.8989167,20.0,-0.038350656628608704,-0.011718256399035454,-0.020240623503923416,972333.0,58672476.0,1412183551.0,0.5886000394821167,0.5886000394821167,10.202400207519531,0.06731802225112915,0.7671714425086975,-0.08001953363418579
1412183550.9084914,20.0,-0.038350656628608704,-0.012783551588654518,-0.019175328314304352,972334.0,68258792.0,1412183551.0,0.35316002368927,1.2556800842285156,10.791000366210938,0.0717635527253151,0.7589154243469238,-0.08255983889102936
1412183550.918818,20.0,-0.03941595181822777,-0.011718256399035454,-0.020240623503923416,972335.0,78347948.0,1412183551.0,0.6278400421142578,0.7455600500106812,10.2416410446167,0.0717635527253151,0.7589154243469238,-0.08255983889102936
1412183550.928576,20.0,-0.03941595181822777,-0.012783551588654518,-0.020240623503923416,972337.0,98546351.0,1412183551.0,0.6670800447463989,0.7848000526428223,10.084680557250977,0.07430385053157806,0.7716169357299805,-0.08319491147994995
1412183550.9384835,20.0,-0.03941595181822777,-0.012783551588654518,-0.019175328314304352,972338.0,108222052.0,1412183551.0,0.5493600368499756,0.7455600500106812,10.830240249633789,0.0635075643658638,0.762090802192688,-0.0876404419541359
1412183550.9483685,20.0,-0.03941595181822777,-0.011718256399035454,-0.020240623503923416,972340.0,128053678.0,1412183551.0,0.8632800579071045,1.05948007106781,10.555561065673828,0.07049340009689331,0.7652661800384521,-0.08128968626260757
1412183550.9587657,20.0,-0.03941595181822777,-0.011718256399035454,-0.020240623503923416,972341.0,138328785.0,1412183551.0,1.373400092124939,0.7848000526428223,10.28088092803955,0.06858817487955093,0.7659012675285339,-0.08382999151945114
1412183550.968647,20.0,-0.03728536143898964,-0.012783551588654518,-0.020240623503923416,972343.0,158177486.0,1412183551.0,0.8632800579071045,1.020240068435669,10.28088092803955,0.06858817487955093,0.7690766453742981,-0.08001953363418579
1412183550.97848,20.0,-0.03941595181822777,-0.011718256399035454,-0.019175328314304352,972344.0,168175900.0,1412183551.0,0.5886000394821167,0.9810000658035278,10.59480094909668,0.06858817487955093,0.7690766453742981,-0.08001953363418579
1412183550.9887636,20.0,-0.038350656628608704,-0.011718256399035454,-0.020240623503923416,972346.0,188580242.0,1412183551.0,0.43164002895355225,0.7848000526428223,10.516321182250977,0.06541279703378677,0.7608206868171692,-0.0876404419541359
1412183550.998431,20.0,-0.038350656628608704,-0.011718256399035454,-0.019175328314304352,972347.0,198345223.0,1412183551.0,0.9025200605392456,0.9025200605392456,10.59480094909668,0.06922324746847153,0.7512944936752319,-0.08891059458255768
1412183551.008506,20.0,-0.038350656628608704,-0.011718256399035454,-0.019175328314304352,972348.0,208505673.0,1412183551.0,0.47088003158569336,0.7848000526428223,10.516321182250977,0.06922324746847153,0.7512944936752319,-0.08891059458255768
1412183551.0186017,20.0,-0.038350656628608704,-0.011718256399035454,-0.019175328314304352,972350.0,228475133.0,1412183551.0,1.2556800842285156,1.3341600894927979,10.555561065673828,0.06922324746847153,0.7512944936752319,-0.08128968626260757
1412183551.0286667,20.0,-0.038350656628608704,-0.012783551588654518,-0.020240623503923416,972351.0,238526297.0,1412183551.0,0.70632004737854,0.9417600631713867,10.437840461730957,0.07620908319950104,0.7512944936752319,-0.08573521673679352
1412183551.0385182,20.0,-0.036220062524080276,-0.012783551588654518,-0.02130592055618763,972353.0,258424194.0,1412183551.0,0.7455600500106812,0.6670800447463989,10.398600578308105,0.07557400315999985,0.7722520232200623,-0.08637028932571411
1412183551.0485299,20.0,-0.038350656628608704,-0.012783551588654518,-0.019175328314304352,972354.0,268323922.0,1412183551.0,1.0987200736999512,0.6278400421142578,10.908720970153809,0.06096726655960083,0.7716169357299805,-0.08637028932571411
1412183551.0588822,20.0,-0.03941595181822777,-0.011718256399035454,-0.020240623503923416,972356.0,288472833.0,1412183551.0,0.5101200342178345,0.8240400552749634,10.28088092803955,0.07303370535373688,0.7570102214813232,-0.08827552199363708
1412183551.068473,20.0,-0.03941595181822777,-0.012783551588654518,-0.020240623503923416,972357.0,298283758.0,1412183551.0,0.5101200342178345,0.9810000658035278,10.712520599365234,0.06668294221162796,0.7659012675285339,-0.08001953363418579
1412183551.078543,20.0,-0.038350656628608704,-0.011718256399035454,-0.020240623503923416,972358.0,308216034.0,1412183551.0,0.9810000658035278,0.5886000394821167,10.2416410446167,0.06668294221162796,0.7608206868171692,-0.08446506410837173
1412183551.088592,20.0,-0.038350656628608704,-0.011718256399035454,-0.02130592055618763,972360.0,328295670.0,1412183551.0,0.47088003158569336,1.020240068435669,10.359360694885254,0.0717635527253151,0.7614557147026062,-0.07747923582792282
1412183551.0987706,20.0,-0.03941595181822777,-0.012783551588654518,-0.020240623503923416,972361.0,338374029.0,1412183551.0,0.9025200605392456,0.8632800579071045,10.123920440673828,0.0717635527253151,0.7722520232200623,-0.08319491147994995
1412183551.1084075,20.0,-0.038350656628608704,-0.012783551588654518,-0.019175328314304352,972363.0,358331292.0,1412183551.0,0.8240400552749634,1.0987200736999512,10.045440673828125,0.06731802225112915,0.7608206868171692,-0.09018074721097946
1412183551.1185305,20.0,-0.038350656628608704,-0.012783551588654518,-0.019175328314304352,972364.0,368280644.0,1412183551.0,0.5493600368499756,0.5886000394821167,10.516321182250977,0.05969711393117905,0.7595505118370056,-0.08573521673679352
1412183551.1282654,20.0,-0.038350656628608704,-0.012783551588654518,-0.020240623503923416,972366.0,388369328.0,1412183551.0,0.35316002368927,0.9417600631713867,10.084680557250977,0.07049340009689331,0.7709818482398987,-0.08128968626260757
1412183551.1385336,20.0,-0.03941595181822777,-0.012783551588654518,-0.020240623503923416,972367.0,398322946.0,1412183551.0,0.19620001316070557,0.70632004737854,10.437840461730957,0.07684415578842163,0.7563751339912415,-0.08446506410837173
1412183551.1483612,20.0,-0.038350656628608704,-0.012783551588654518,-0.02130592055618763,972369.0,418328111.0,1412183551.0,0.5493600368499756,0.8240400552749634,10.320120811462402,0.06541279703378677,0.7665363550186157,-0.08001953363418579
1412183551.1583822,20.0,-0.038350656628608704,-0.011718256399035454,-0.020240623503923416,972370.0,428505557.0,1412183551.0,1.0987200736999512,0.6278400421142578,10.751760482788086,0.07874938100576401,0.7722520232200623,-0.07874938100576401
1412183551.1683838,20.0,-0.038350656628608704,-0.012783551588654518,-0.020240623503923416,972371.0,438302763.0,1412183551.0,0.7455600500106812,1.2556800842285156,10.398600578308105,0.06922324746847153,0.7722520232200623,-0.08319491147994995
1412183551.1787488,20.0,-0.038350656628608704,-0.012783551588654518,-0.020240623503923416,972373.0,458336075.0,1412183551.0,1.020240068435669,1.726560115814209,11.30112075805664,0.06985832750797272,0.758280336856842,-0.08510013669729233
1412183551.1887918,20.0,-0.03941595181822777,-0.011718256399035454,-0.020240623503923416,972374.0,468346654.0,1412183551.0,0.8240400552749634,1.05948007106781,10.59480094909668,0.06541279703378677,0.7512944936752319,-0.08255983889102936
1412183551.1985767,20.0,-0.03941595181822777,-0.011718256399035454,-0.02130592055618763,972376.0,488369576.0,1412183551.0,1.2556800842285156,0.70632004737854,10.123920440673828,0.0717635527253151,0.7608206868171692,-0.08382999151945114
1412183551.2087345,20.0,-0.038350656628608704,-0.011718256399035454,-0.020240623503923416,972377.0,498537254.0,1412183551.0,0.3139200210571289,1.0987200736999512,10.869481086730957,0.0717635527253151,0.7608206868171692,-0.08382999151945114
1412183551.218647,20.0,-0.038350656628608704,-0.011718256399035454,-0.020240623503923416,972379.0,518419090.0,1412183551.0,0.6278400421142578,1.3341600894927979,10.634040832519531,0.0793844610452652,0.7595505118370056,-0.08446506410837173
1412183551.2286878,20.0,-0.038350656628608704,-0.012783551588654518,-0.020240623503923416,972380.0,528317025.0,1412183551.0,0.5493600368499756,0.9810000658035278,10.634040832519531,0.06731802225112915,0.7671714425086975,-0.08319491147994995
1412183551.2387447,20.0,-0.03728536143898964,-0.011718256399035454,-0.020240623503923416,972382.0,548233451.0,1412183551.0,1.020240068435669,0.7848000526428223,10.359360694885254,0.06922324746847153,0.7627258896827698,-0.0870053693652153
1412183551.2486517,20.0,-0.03728536143898964,-0.012783551588654518,-0.02130592055618763,972383.0,558275571.0,1412183551.0,0.7848000526428223,0.8632800579071045,10.634040832519531,0.06096726655960083,0.7747923135757446,-0.08255983889102936
1412183551.2586083,20.0,-0.038350656628608704,-0.011718256399035454,-0.019175328314304352,972385.0,578297559.0,1412183551.0,0.15696001052856445,1.5303601026535034,10.987200736999512,0.0717635527253151,0.7646310925483704,-0.08255983889102936
1412183551.2685132,20.0,-0.03941595181822777,-0.011718256399035454,-0.019175328314304352,972386.0,588250959.0,1412183551.0,0.8240400552749634,0.7848000526428223,10.359360694885254,0.0717635527253151,0.7646310925483704,-0.08255983889102936
1412183551.2786756,20.0,-0.038350656628608704,-0.011718256399035454,-0.020240623503923416,972387.0,598501999.0,1412183551.0,0.70632004737854,0.39240002632141113,10.28088092803955,0.07620908319950104,0.7709818482398987,-0.08128968626260757
1412183551.2886655,20.0,-0.03728536143898964,-0.011718256399035454,-0.02130592055618763,972389.0,618320733.0,1412183551.0,0.6278400421142578,0.7848000526428223,10.94796085357666,0.06795309484004974,0.7652661800384521,-0.0876404419541359
1412183551.2985024,20.0,-0.038350656628608704,-0.010652960278093815,-0.02130592055618763,972390.0,628593121.0,1412183551.0,0.6670800447463989,0.8240400552749634,10.712520599365234,0.06795309484004974,0.7652661800384521,-0.0876404419541359
1412183551.3084395,20.0,-0.038350656628608704,-0.010652960278093815,-0.02130592055618763,972392.0,648448825.0,1412183551.0,0.5493600368499756,0.7455600500106812,10.16316032409668,0.07493893057107925,0.7709818482398987,-0.08192475885152817
1412183551.3185558,20.0,-0.038350656628608704,-0.010652960278093815,-0.02130592055618763,972393.0,658547569.0,1412183551.0,0.8240400552749634,0.8240400552749634,10.359360694885254,0.07557400315999985,0.758280336856842,-0.08192475885152817
1412183551.3284822,20.0,-0.038350656628608704,-0.010652960278093815,-0.020240623503923416,972395.0,678411113.0,1412183551.0,0.7455600500106812,0.8632800579071045,10.516321182250977,0.07684415578842163,0.7722520232200623,-0.08382999151945114
1412183551.3385818,20.0,-0.038350656628608704,-0.011718256399035454,-0.02130592055618763,972396.0,688131256.0,1412183551.0,0.2746800184249878,0.6670800447463989,10.634040832519531,0.07493893057107925,0.7671714425086975,-0.08382999151945114
1412183551.3488204,20.0,-0.038350656628608704,-0.010652960278093815,-0.020240623503923416,972398.0,708430340.0,1412183551.0,1.020240068435669,0.9025200605392456,10.202400207519531,0.07303370535373688,0.7678064703941345,-0.0870053693652153
1412183551.358527,20.0,-0.038350656628608704,-0.010652960278093815,-0.02130592055618763,972399.0,718235377.0,1412183551.0,0.8240400552749634,0.9810000658035278,10.123920440673828,0.0635075643658638,0.7716169357299805,-0.0870053693652153
1412183551.3685117,20.0,-0.03728536143898964,-0.009587664157152176,-0.020240623503923416,972400.0,728364301.0,1412183551.0,1.6088401079177856,0.6278400421142578,10.202400207519531,0.062237415462732315,0.758280336856842,-0.08128968626260757
1412183551.3789709,20.0,-0.038350656628608704,-0.011718256399035454,-0.022371215745806694,972402.0,748306104.0,1412183551.0,0.6278400421142578,0.8240400552749634,10.477080345153809,0.06096726655960083,0.7709818482398987,-0.08510013669729233
1412183551.3886087,20.0,-0.038350656628608704,-0.010652960278093815,-0.02130592055618763,972403.0,758416892.0,1412183551.0,1.2949200868606567,0.7455600500106812,10.123920440673828,0.0635075643658638,0.762090802192688,-0.0876404419541359
1412183551.3985248,20.0,-0.03728536143898964,-0.010652960278093815,-0.02130592055618763,972405.0,778543415.0,1412183551.0,0.3139200210571289,0.9810000658035278,10.791000366210938,0.06922324746847153,0.7665363550186157,-0.08319491147994995
1412183551.4084072,20.0,-0.038350656628608704,-0.011718256399035454,-0.020240623503923416,972406.0,788465112.0,1412183551.0,0.6670800447463989,1.1772000789642334,10.477080345153809,0.07620908319950104,0.7570102214813232,-0.08382999151945114
1412183551.4185133,20.0,-0.03941595181822777,-0.012783551588654518,-0.019175328314304352,972408.0,808349584.0,1412183551.0,1.2556800842285156,0.8240400552749634,9.84924030303955,0.06922324746847153,0.7570102214813232,-0.0870053693652153
1412183551.428696,20.0,-0.03941595181822777,-0.013848847709596157,-0.019175328314304352,972409.0,818330909.0,1412183551.0,0.9810000658035278,1.020240068435669,10.869481086730957,0.06414264440536499,0.7671714425086975,-0.08255983889102936
1412183551.4384913,20.0,-0.038350656628608704,-0.013848847709596157,-0.019175328314304352,972410.0,828218448.0,1412183551.0,1.4911201000213623,0.5101200342178345,10.123920440673828,0.07493893057107925,0.7614557147026062,-0.08065461367368698
1412183551.448577,20.0,-0.03941595181822777,-0.012783551588654518,-0.020240623503923416,972412.0,848538961.0,1412183551.0,0.43164002895355225,0.9810000658035278,10.59480094909668,0.0711284726858139,0.762090802192688,-0.0793844610452652
1412183551.4585233,20.0,-0.03941595181822777,-0.014914143830537796,-0.019175328314304352,972413.0,858450700.0,1412183551.0,1.373400092124939,0.5101200342178345,10.359360694885254,0.06668294221162796,0.7608206868171692,-0.08637028932571411
1412183551.4685292,20.0,-0.03941595181822777,-0.014914143830537796,-0.022371215745806694,972415.0,878605599.0,1412183551.0,0.7455600500106812,0.8632800579071045,10.477080345153809,0.07239862531423569,0.7671714425086975,-0.08128968626260757
1412183551.4787889,20.0,-0.04048124700784683,-0.012783551588654518,-0.020240623503923416,972416.0,888407954.0,1412183551.0,0.9417600631713867,1.05948007106781,10.830240249633789,0.06985832750797272,0.7722520232200623,-0.0793844610452652
1412183551.4886122,20.0,-0.03728536143898964,-0.011718256399035454,-0.020240623503923416,972418.0,908867268.0,1412183551.0,0.5493600368499756,0.5886000394821167,10.320120811462402,0.07747923582792282,0.7595505118370056,-0.08255983889102936
1412183551.4987578,20.0,-0.03728536143898964,-0.012783551588654518,-0.019175328314304352,972419.0,918327509.0,1412183551.0,0.8632800579071045,0.7455600500106812,10.398600578308105,0.07747923582792282,0.7595505118370056,-0.08255983889102936
1412183551.5084746,20.0,-0.038350656628608704,-0.011718256399035454,-0.020240623503923416,972421.0,938204072.0,1412183551.0,0.5493600368499756,0.7455600500106812,10.16316032409668,0.062237415462732315,0.762090802192688,-0.08255983889102936
1412183551.518664,20.0,-0.03728536143898964,-0.012783551588654518,-0.020240623503923416,972422.0,948480137.0,1412183551.0,0.6670800447463989,0.7455600500106812,10.516321182250977,0.07684415578842163,0.7608206868171692,-0.08637028932571411
1412183551.5285997,20.0,-0.03941595181822777,-0.013848847709596157,-0.019175328314304352,972424.0,968154327.0,1412183551.0,1.05948007106781,0.7848000526428223,11.144161224365234,0.0711284726858139,0.7614557147026062,-0.08319491147994995
1412183551.5385575,20.0,-0.03941595181822777,-0.011718256399035454,-0.02130592055618763,972425.0,978489830.0,1412183551.0,0.9417600631713867,0.8240400552749634,10.634040832519531,0.06985832750797272,0.7563751339912415,-0.08382999151945114
1412183551.5484257,20.0,-0.038350656628608704,-0.012783551588654518,-0.020240623503923416,972426.0,988577932.0,1412183551.0,1.1379600763320923,0.8632800579071045,10.398600578308105,0.06096726655960083,0.7557400465011597,-0.08382999151945114
1412183551.5584717,20.0,-0.03728536143898964,-0.010652960278093815,-0.02130592055618763,972428.0,8200127.0,1412183552.0,0.70632004737854,0.7848000526428223,10.123920440673828,0.0711284726858139,0.7659012675285339,-0.08192475885152817
1412183551.5685601,20.0,-0.03728536143898964,-0.011718256399035454,-0.02130592055618763,972429.0,18429593.0,1412183552.0,0.39240002632141113,0.7455600500106812,10.437840461730957,0.06731802225112915,0.7563751339912415,-0.08382999151945114
1412183551.5784833,20.0,-0.038350656628608704,-0.010652960278093815,-0.020240623503923416,972431.0,38451810.0,1412183552.0,1.3341600894927979,0.8240400552749634,10.673280715942383,0.06858817487955093,0.7512944936752319,-0.08319491147994995
1412183551.5884726,20.0,-0.038350656628608704,-0.011718256399035454,-0.022371215745806694,972432.0,48407934.0,1412183552.0,0.9025200605392456,0.6278400421142578,10.320120811462402,0.06858817487955093,0.7512944936752319,-0.08319491147994995
1412183551.5987377,20.0,-0.038350656628608704,-0.012783551588654518,-0.020240623503923416,972434.0,68502733.0,1412183552.0,0.3139200210571289,1.05948007106781,10.830240249633789,0.06795309484004974,0.7595505118370056,-0.08382999151945114
1412183551.6085896,20.0,-0.03728536143898964,-0.012783551588654518,-0.020240623503923416,972435.0,78305523.0,1412183552.0,0.5101200342178345,0.7848000526428223,10.712520599365234,0.07684415578842163,0.7665363550186157,-0.08128968626260757
1412183551.6185474,20.0,-0.03728536143898964,-0.011718256399035454,-0.020240623503923416,972437.0,98541778.0,1412183552.0,0.8240400552749634,0.9810000658035278,10.869481086730957,0.07239862531423569,0.762090802192688,-0.08637028932571411
1412183551.628824,20.0,-0.03728536143898964,-0.011718256399035454,-0.020240623503923416,972438.0,108286252.0,1412183552.0,0.39240002632141113,1.1379600763320923,10.94796085357666,0.0711284726858139,0.7595505118370056,-0.08255983889102936
1412183551.6384888,20.0,-0.038350656628608704,-0.011718256399035454,-0.020240623503923416,972439.0,118369870.0,1412183552.0,0.5101200342178345,0.8632800579071045,10.16316032409668,0.062237415462732315,0.7722520232200623,-0.08255983889102936
1412183551.648652,20.0,-0.03941595181822777,-0.012783551588654518,-0.020240623503923416,972441.0,138465669.0,1412183552.0,0.8240400552749634,0.8240400552749634,10.28088092803955,0.0628724917769432,0.7659012675285339,-0.08255983889102936
1412183551.6587803,20.0,-0.038350656628608704,-0.011718256399035454,-0.020240623503923416,972442.0,148232051.0,1412183552.0,0.5886000394821167,1.5696001052856445,10.908720970153809,0.06604786962270737,0.7659012675285339,-0.08255983889102936
1412183551.6684854,20.0,-0.038350656628608704,-0.012783551588654518,-0.019175328314304352,972444.0,168347887.0,1412183552.0,0.9417600631713867,0.6278400421142578,10.16316032409668,0.07049340009689331,0.7512944936752319,-0.08192475885152817
1412183551.6786273,20.0,-0.038350656628608704,-0.013848847709596157,-0.020240623503923416,972445.0,178430872.0,1412183552.0,0.8240400552749634,0.9025200605392456,10.516321182250977,0.05969711393117905,0.762090802192688,-0.08001953363418579
1412183551.688361,20.0,-0.038350656628608704,-0.012783551588654518,-0.019175328314304352,972447.0,198258992.0,1412183552.0,0.3139200210571289,0.39240002632141113,10.202400207519531,0.07684415578842163,0.7697117328643799,-0.08637028932571411
1412183551.698719,20.0,-0.04048124700784683,-0.012783551588654518,-0.019175328314304352,972448.0,208495474.0,1412183552.0,0.9025200605392456,1.0987200736999512,10.555561065673828,0.06731802225112915,0.7697117328643799,-0.08446506410837173
1412183551.708631,20.0,-0.038350656628608704,-0.014914143830537796,-0.018110031262040138,972450.0,228189964.0,1412183552.0,1.2164400815963745,0.5101200342178345,10.398600578308105,0.0717635527253151,0.7512944936752319,-0.0876404419541359
1412183551.7184489,20.0,-0.03941595181822777,-0.014914143830537796,-0.019175328314304352,972451.0,238652356.0,1412183552.0,1.05948007106781,0.8240400552749634,9.92772102355957,0.06985832750797272,0.7659012675285339,-0.08255983889102936
1412183551.7286265,20.0,-0.038350656628608704,-0.014914143830537796,-0.019175328314304352,972452.0,248471999.0,1412183552.0,0.6670800447463989,0.7848000526428223,10.437840461730957,0.06858817487955093,0.7646310925483704,-0.08128968626260757
1412183551.738656,20.0,-0.038350656628608704,-0.013848847709596157,-0.020240623503923416,972454.0,268543491.0,1412183552.0,1.2949200868606567,0.6278400421142578,10.202400207519531,0.07430385053157806,0.7563751339912415,-0.08128968626260757
1412183551.7484877,20.0,-0.03941595181822777,-0.012783551588654518,-0.019175328314304352,972455.0,278348096.0,1412183552.0,0.7455600500106812,0.9417600631713867,11.30112075805664,0.08001953363418579,0.7563751339912415,-0.08446506410837173
1412183551.7586057,20.0,-0.03941595181822777,-0.011718256399035454,-0.019175328314304352,972457.0,298543841.0,1412183552.0,0.8632800579071045,0.7455600500106812,10.673280715942383,0.0628724917769432,0.7659012675285339,-0.08382999151945114
1412183551.7686534,20.0,-0.038350656628608704,-0.010652960278093815,-0.02130592055618763,972458.0,308365874.0,1412183552.0,0.6670800447463989,0.8632800579071045,10.555561065673828,0.06731802225112915,0.7614557147026062,-0.08128968626260757
1412183551.778779,20.0,-0.038350656628608704,-0.010652960278093815,-0.020240623503923416,972460.0,328309757.0,1412183552.0,0.7455600500106812,0.5101200342178345,10.16316032409668,0.06858817487955093,0.7709818482398987,-0.08255983889102936
1412183551.7886517,20.0,-0.03941595181822777,-0.010652960278093815,-0.020240623503923416,972461.0,338277080.0,1412183552.0,0.39240002632141113,1.020240068435669,10.751760482788086,0.06858817487955093,0.7709818482398987,-0.08255983889102936
1412183551.7985597,20.0,-0.03728536143898964,-0.010652960278093815,-0.020240623503923416,972463.0,358309846.0,1412183552.0,1.2164400815963745,0.7455600500106812,10.673280715942383,0.07874938100576401,0.7570102214813232,-0.08827552199363708
1412183551.8085523,20.0,-0.038350656628608704,-0.011718256399035454,-0.020240623503923416,972464.0,368278160.0,1412183552.0,0.6670800447463989,1.1379600763320923,10.712520599365234,0.0711284726858139,0.7722520232200623,-0.08319491147994995
1412183551.8185582,20.0,-0.038350656628608704,-0.010652960278093815,-0.020240623503923416,972465.0,378429913.0,1412183552.0,0.9025200605392456,0.39240002632141113,10.359360694885254,0.0711284726858139,0.7722520232200623,-0.08319491147994995
1412183551.8284347,20.0,-0.03728536143898964,-0.010652960278093815,-0.020240623503923416,972467.0,398500598.0,1412183552.0,0.9025200605392456,0.6278400421142578,10.555561065673828,0.06922324746847153,0.7563751339912415,-0.08001953363418579
1412183551.8386724,20.0,-0.03941595181822777,-0.010652960278093815,-0.02130592055618763,972468.0,408417923.0,1412183552.0,0.39240002632141113,0.6278400421142578,10.477080345153809,0.0711284726858139,0.7709818482398987,-0.08319491147994995
1412183551.8487236,20.0,-0.038350656628608704,-0.010652960278093815,-0.02130592055618763,972470.0,428457695.0,1412183552.0,0.7455600500106812,0.7848000526428223,10.359360694885254,0.07239862531423569,0.7608206868171692,-0.08065461367368698
1412183551.8586268,20.0,-0.038350656628608704,-0.011718256399035454,-0.020240623503923416,972471.0,438278429.0,1412183552.0,0.7455600500106812,0.8240400552749634,10.359360694885254,0.07430385053157806,0.7608206868171692,-0.08382999151945114
1412183551.868591,20.0,-0.038350656628608704,-0.012783551588654518,-0.020240623503923416,972473.0,458511130.0,1412183552.0,0.43164002895355225,0.5493600368499756,10.084680557250977,0.06668294221162796,0.7614557147026062,-0.08065461367368698
1412183551.8787982,20.0,-0.038350656628608704,-0.011718256399035454,-0.020240623503923416,972474.0,468229260.0,1412183552.0,0.8240400552749634,0.8632800579071045,11.104920387268066,0.06668294221162796,0.7614557147026062,-0.08065461367368698
1412183551.8886316,20.0,-0.038350656628608704,-0.011718256399035454,-0.020240623503923416,972476.0,488176678.0,1412183552.0,0.39240002632141113,0.7455600500106812,10.437840461730957,0.07049340009689331,0.7563751339912415,-0.08001953363418579
1412183551.8984685,20.0,-0.038350656628608704,-0.011718256399035454,-0.020240623503923416,972477.0,498422878.0,1412183552.0,0.70632004737854,1.4518800973892212,10.869481086730957,0.06731802225112915,0.7595505118370056,-0.08891059458255768
1412183551.909063,20.0,-0.03728536143898964,-0.012783551588654518,-0.019175328314304352,972478.0,508261256.0,1412183552.0,0.9025200605392456,0.6278400421142578,10.59480094909668,0.06731802225112915,0.7595505118370056,-0.08891059458255768
1412183551.9185364,20.0,-0.03941595181822777,-0.011718256399035454,-0.019175328314304352,972480.0,528515814.0,1412183552.0,0.70632004737854,1.020240068435669,10.751760482788086,0.06795309484004974,0.7646310925483704,-0.08192475885152817
1412183551.9285438,20.0,-0.03941595181822777,-0.011718256399035454,-0.019175328314304352,972481.0,538273208.0,1412183552.0,0.9025200605392456,1.1772000789642334,10.084680557250977,0.06604786962270737,0.758280336856842,-0.08382999151945114
1412183551.9383912,20.0,-0.04048124700784683,-0.012783551588654518,-0.020240623503923416,972483.0,558324972.0,1412183552.0,0.9417600631713867,1.1772000789642334,10.634040832519531,0.06858817487955093,0.7563751339912415,-0.08128968626260757
1412183551.9486985,20.0,-0.038350656628608704,-0.012783551588654518,-0.020240623503923416,972484.0,568417737.0,1412183552.0,0.5493600368499756,1.1772000789642334,10.59480094909668,0.06033219024538994,0.762090802192688,-0.08128968626260757
1412183551.9585676,20.0,-0.038350656628608704,-0.012783551588654518,-0.019175328314304352,972486.0,588436690.0,1412183552.0,0.3139200210571289,0.70632004737854,10.516321182250977,0.06668294221162796,0.7608206868171692,-0.08128968626260757
1412183551.968346,20.0,-0.03941595181822777,-0.012783551588654518,-0.020240623503923416,972487.0,598503814.0,1412183552.0,0.8632800579071045,0.9417600631713867,10.555561065673828,0.06795309484004974,0.7678064703941345,-0.08891059458255768
1412183551.9786704,20.0,-0.03941595181822777,-0.011718256399035454,-0.020240623503923416,972489.0,618242305.0,1412183552.0,1.0987200736999512,0.6278400421142578,10.555561065673828,0.06477771699428558,0.7716169357299805,-0.08192475885152817
1412183551.988827,20.0,-0.038350656628608704,-0.011718256399035454,-0.019175328314304352,972490.0,628480327.0,1412183552.0,0.5101200342178345,0.6670800447463989,10.437840461730957,0.06985832750797272,0.7627258896827698,-0.08573521673679352
1412183551.998595,20.0,-0.03728536143898964,-0.011718256399035454,-0.020240623503923416,972491.0,638536398.0,1412183552.0,0.35316002368927,1.1379600763320923,10.555561065673828,0.06985832750797272,0.7627258896827698,-0.08573521673679352
1412183552.008384,20.0,-0.03941595181822777,-0.012783551588654518,-0.020240623503923416,972493.0,658669703.0,1412183552.0,0.5101200342178345,1.4518800973892212,10.359360694885254,0.07239862531423569,0.7690766453742981,-0.08510013669729233
1412183552.0186532,20.0,-0.038350656628608704,-0.011718256399035454,-0.020240623503923416,972494.0,668510037.0,1412183552.0,0.6670800447463989,0.8240400552749634,10.437840461730957,0.0717635527253151,0.7633609771728516,-0.08510013669729233
1412183552.0285656,20.0,-0.038350656628608704,-0.011718256399035454,-0.020240623503923416,972496.0,688241080.0,1412183552.0,0.9025200605392456,1.1772000789642334,10.16316032409668,0.08065461367368698,0.7512944936752319,-0.08510013669729233
1412183552.0386527,20.0,-0.03941595181822777,-0.012783551588654518,-0.020240623503923416,972497.0,698474656.0,1412183552.0,0.3139200210571289,0.70632004737854,9.84924030303955,0.06096726655960083,0.7557400465011597,-0.08510013669729233
1412183552.0486162,20.0,-0.038350656628608704,-0.011718256399035454,-0.020240623503923416,972499.0,718283565.0,1412183552.0,0.8632800579071045,0.39240002632141113,10.320120811462402,0.0711284726858139,0.7722520232200623,-0.08319491147994995
1412183552.0587811,20.0,-0.03941595181822777,-0.012783551588654518,-0.02130592055618763,972500.0,728064499.0,1412183552.0,0.7848000526428223,0.7455600500106812,10.673280715942383,0.07430385053157806,0.7722520232200623,-0.08255983889102936
1412183552.0687425,20.0,-0.038350656628608704,-0.011718256399035454,-0.02130592055618763,972502.0,748478194.0,1412183552.0,0.7848000526428223,0.9417600631713867,10.555561065673828,0.062237415462732315,0.7709818482398987,-0.08001953363418579
1412183552.0785096,20.0,-0.038350656628608704,-0.011718256399035454,-0.019175328314304352,972503.0,758416007.0,1412183552.0,0.6670800447463989,1.020240068435669,10.398600578308105,0.062237415462732315,0.7709818482398987,-0.08001953363418579
1412183552.0887625,20.0,-0.038350656628608704,-0.013848847709596157,-0.019175328314304352,972504.0,768399925.0,1412183552.0,0.23544001579284668,1.2556800842285156,10.791000366210938,0.07557400315999985,0.7684415578842163,-0.08001953363418579
1412183552.0987616,20.0,-0.038350656628608704,-0.011718256399035454,-0.02130592055618763,972506.0,788289176.0,1412183552.0,0.70632004737854,0.9810000658035278,10.398600578308105,0.07239862531423569,0.7722520232200623,-0.08827552199363708
1412183552.1084635,20.0,-0.038350656628608704,-0.011718256399035454,-0.02130592055618763,972507.0,798593750.0,1412183552.0,1.020240068435669,0.8240400552749634,10.437840461730957,0.07239862531423569,0.7722520232200623,-0.08827552199363708
1412183552.1186154,20.0,-0.038350656628608704,-0.011718256399035454,-0.020240623503923416,972509.0,818402152.0,1412183552.0,1.2164400815963745,1.1379600763320923,11.458080291748047,0.07557400315999985,0.7665363550186157,-0.08637028932571411
1412183552.1286674,20.0,-0.038350656628608704,-0.012783551588654518,-0.020240623503923416,972510.0,828140557.0,1412183552.0,0.9810000658035278,1.0987200736999512,10.477080345153809,0.07239862531423569,0.7627258896827698,-0.0870053693652153
1412183552.1386852,20.0,-0.03941595181822777,-0.011718256399035454,-0.019175328314304352,972512.0,848263216.0,1412183552.0,0.2746800184249878,1.05948007106781,10.830240249633789,0.06477771699428558,0.7735221982002258,-0.08319491147994995
1412183552.1484306,20.0,-0.03941595181822777,-0.010652960278093815,-0.019175328314304352,972513.0,858328608.0,1412183552.0,0.70632004737854,0.8632800579071045,10.59480094909668,0.07557400315999985,0.7595505118370056,-0.07874938100576401
1412183552.1586668,20.0,-0.03941595181822777,-0.011718256399035454,-0.02130592055618763,972515.0,878566423.0,1412183552.0,0.8240400552749634,0.5101200342178345,10.28088092803955,0.06922324746847153,0.7722520232200623,-0.08128968626260757
1412183552.1685607,20.0,-0.04048124700784683,-0.012783551588654518,-0.02130592055618763,972516.0,888490001.0,1412183552.0,0.3139200210571289,1.020240068435669,10.398600578308105,0.06922324746847153,0.7722520232200623,-0.08128968626260757
1412183552.1786346,20.0,-0.038350656628608704,-0.011718256399035454,-0.020240623503923416,972517.0,898224532.0,1412183552.0,0.5493600368499756,0.5493600368499756,10.477080345153809,0.06731802225112915,0.7614557147026062,-0.08065461367368698
1412183552.1885731,20.0,-0.038350656628608704,-0.011718256399035454,-0.020240623503923416,972519.0,918372996.0,1412183552.0,0.9810000658035278,0.7455600500106812,10.28088092803955,0.06985832750797272,0.7659012675285339,-0.08510013669729233
1412183552.1984637,20.0,-0.03728536143898964,-0.012783551588654518,-0.019175328314304352,972520.0,928345274.0,1412183552.0,0.8632800579071045,1.05948007106781,10.634040832519531,0.06985832750797272,0.7659012675285339,-0.08510013669729233
1412183552.2087414,20.0,-0.038350656628608704,-0.012783551588654518,-0.020240623503923416,972522.0,948630159.0,1412183552.0,0.47088003158569336,0.7455600500106812,10.751760482788086,0.07684415578842163,0.7709818482398987,-0.08510013669729233
1412183552.2186859,20.0,-0.04048124700784683,-0.012783551588654518,-0.020240623503923416,972523.0,958482806.0,1412183552.0,0.3139200210571289,0.70632004737854,10.555561065673828,0.07430385053157806,0.7665363550186157,-0.08510013669729233
1412183552.2283778,20.0,-0.038350656628608704,-0.011718256399035454,-0.020240623503923416,972525.0,978572457.0,1412183552.0,0.43164002895355225,0.8240400552749634,10.006200790405273,0.07049340009689331,0.7627258896827698,-0.08255983889102936
1412183552.238893,20.0,-0.03941595181822777,-0.012783551588654518,-0.020240623503923416,972526.0,988406547.0,1412183552.0,0.6670800447463989,0.6670800447463989,10.359360694885254,0.06795309484004974,0.7709818482398987,-0.08446506410837173
1412183552.2486978,20.0,-0.038350656628608704,-0.012783551588654518,-0.020240623503923416,972528.0,8109360.0,1412183553.0,0.47088003158569336,0.7455600500106812,10.673280715942383,0.06985832750797272,0.7563751339912415,-0.08382999151945114
1412183552.2586656,20.0,-0.03941595181822777,-0.012783551588654518,-0.02130592055618763,972529.0,18305037.0,1412183553.0,0.2746800184249878,0.39240002632141113,10.477080345153809,0.06858817487955093,0.7614557147026062,-0.08382999151945114
1412183552.2687843,20.0,-0.038350656628608704,-0.013848847709596157,-0.020240623503923416,972530.0,28503615.0,1412183553.0,0.7848000526428223,1.1379600763320923,10.477080345153809,0.07239862531423569,0.7722520232200623,-0.08446506410837173
1412183552.2785592,20.0,-0.04048124700784683,-0.012783551588654518,-0.020240623503923416,972532.0,48199370.0,1412183553.0,0.47088003158569336,0.70632004737854,10.006200790405273,0.06541279703378677,0.7608206868171692,-0.08637028932571411
1412183552.2886147,20.0,-0.038350656628608704,-0.012783551588654518,-0.019175328314304352,972533.0,58544478.0,1412183553.0,1.020240068435669,0.5886000394821167,10.359360694885254,0.06922324746847153,0.7608206868171692,-0.07747923582792282
1412183552.298764,20.0,-0.038350656628608704,-0.012783551588654518,-0.020240623503923416,972535.0,78278953.0,1412183553.0,1.2556800842285156,0.70632004737854,10.516321182250977,0.06922324746847153,0.7512944936752319,-0.08319491147994995
1412183552.3085794,20.0,-0.03941595181822777,-0.011718256399035454,-0.019175328314304352,972536.0,88722672.0,1412183553.0,0.7455600500106812,0.6670800447463989,10.712520599365234,0.07049340009689331,0.7563751339912415,-0.08382999151945114
1412183552.3187783,20.0,-0.03941595181822777,-0.012783551588654518,-0.02130592055618763,972538.0,108177936.0,1412183553.0,0.5886000394821167,0.7455600500106812,10.634040832519531,0.062237415462732315,0.7716169357299805,-0.08446506410837173
1412183552.3285048,20.0,-0.03941595181822777,-0.012783551588654518,-0.020240623503923416,972539.0,118503223.0,1412183553.0,0.6278400421142578,1.0987200736999512,10.202400207519531,0.0717635527253151,0.7563751339912415,-0.08382999151945114
1412183552.3384647,20.0,-0.03728536143898964,-0.012783551588654518,-0.020240623503923416,972541.0,138328078.0,1412183553.0,0.6278400421142578,0.9417600631713867,10.202400207519531,0.06795309484004974,0.7665363550186157,-0.07811430841684341
1412183552.3485918,20.0,-0.038350656628608704,-0.012783551588654518,-0.020240623503923416,972542.0,148264163.0,1412183553.0,0.8632800579071045,0.5886000394821167,10.2416410446167,0.07747923582792282,0.7659012675285339,-0.08255983889102936
1412183552.3585124,20.0,-0.038350656628608704,-0.011718256399035454,-0.020240623503923416,972543.0,158506583.0,1412183553.0,0.6670800447463989,0.7848000526428223,10.908720970153809,0.06096726655960083,0.7709818482398987,-0.08255983889102936
1412183552.3684843,20.0,-0.03941595181822777,-0.011718256399035454,-0.020240623503923416,972545.0,178239355.0,1412183553.0,0.6670800447463989,0.9025200605392456,10.555561065673828,0.06985832750797272,0.7608206868171692,-0.08446506410837173
1412183552.3786173,20.0,-0.038350656628608704,-0.012783551588654518,-0.020240623503923416,972546.0,188355057.0,1412183553.0,0.6670800447463989,0.8632800579071045,10.28088092803955,0.06922324746847153,0.7512944936752319,-0.08192475885152817
1412183552.3885508,20.0,-0.038350656628608704,-0.012783551588654518,-0.020240623503923416,972548.0,208300086.0,1412183553.0,0.39240002632141113,0.70632004737854,10.045440673828125,0.0711284726858139,0.7665363550186157,-0.07874938100576401
1412183552.3986902,20.0,-0.038350656628608704,-0.012783551588654518,-0.020240623503923416,972549.0,218269671.0,1412183553.0,0.5886000394821167,1.05948007106781,10.712520599365234,0.0711284726858139,0.7665363550186157,-0.07874938100576401
1412183552.4086416,20.0,-0.03941595181822777,-0.011718256399035454,-0.020240623503923416,972551.0,238444403.0,1412183553.0,0.5886000394821167,1.020240068435669,10.634040832519531,0.0717635527253151,0.7639960646629333,-0.08510013669729233
1412183552.4186,20.0,-0.038350656628608704,-0.011718256399035454,-0.020240623503923416,972552.0,248305828.0,1412183553.0,0.7455600500106812,0.7455600500106812,10.94796085357666,0.0717635527253151,0.7614557147026062,-0.08382999151945114
1412183552.4286528,20.0,-0.03728536143898964,-0.013848847709596157,-0.020240623503923416,972554.0,268332058.0,1412183553.0,0.9417600631713867,1.0987200736999512,10.359360694885254,0.07557400315999985,0.7659012675285339,-0.08319491147994995
1412183552.4385035,20.0,-0.038350656628608704,-0.012783551588654518,-0.020240623503923416,972555.0,278328298.0,1412183553.0,0.35316002368927,0.7848000526428223,10.437840461730957,0.07430385053157806,0.7563751339912415,-0.08382999151945114
1412183552.4485073,20.0,-0.03728536143898964,-0.012783551588654518,-0.020240623503923416,972556.0,288377467.0,1412183553.0,0.6670800447463989,0.39240002632141113,10.673280715942383,0.06731802225112915,0.7614557147026062,-0.08319491147994995
1412183552.4587166,20.0,-0.038350656628608704,-0.011718256399035454,-0.020240623503923416,972558.0,308450439.0,1412183553.0,0.7455600500106812,1.020240068435669,10.28088092803955,0.06096726655960083,0.7716169357299805,-0.08382999151945114
1412183552.4684405,20.0,-0.03728536143898964,-0.011718256399035454,-0.019175328314304352,972559.0,318275794.0,1412183553.0,0.5493600368499756,0.6278400421142578,10.555561065673828,0.07493893057107925,0.7614557147026062,-0.08001953363418579
1412183552.4784825,20.0,-0.03728536143898964,-0.013848847709596157,-0.019175328314304352,972561.0,338638707.0,1412183553.0,0.6670800447463989,0.8240400552749634,10.59480094909668,0.07684415578842163,0.7595505118370056,-0.08510013669729233
1412183552.4883258,20.0,-0.03941595181822777,-0.013848847709596157,-0.019175328314304352,972562.0,348373901.0,1412183553.0,1.020240068435669,0.9810000658035278,10.359360694885254,0.07684415578842163,0.7595505118370056,-0.08510013669729233
1412183552.4986203,20.0,-0.03941595181822777,-0.011718256399035454,-0.019175328314304352,972564.0,368004689.0,1412183553.0,0.9025200605392456,0.5493600368499756,10.398600578308105,0.0635075643658638,0.7627258896827698,-0.08510013669729233
1412183552.5084736,20.0,-0.03941595181822777,-0.012783551588654518,-0.020240623503923416,972565.0,378436599.0,1412183553.0,1.2164400815963745,0.8632800579071045,10.202400207519531,0.0711284726858139,0.7570102214813232,-0.08319491147994995
1412183552.5186164,20.0,-0.03941595181822777,-0.012783551588654518,-0.020240623503923416,972567.0,398216902.0,1412183553.0,0.8240400552749634,1.1379600763320923,10.830240249633789,0.0717635527253151,0.7722520232200623,-0.08001953363418579
1412183552.5287461,20.0,-0.03728536143898964,-0.012783551588654518,-0.019175328314304352,972568.0,408431139.0,1412183553.0,0.70632004737854,0.8632800579071045,10.477080345153809,0.07239862531423569,0.7627258896827698,-0.0876404419541359
1412183552.5385005,20.0,-0.038350656628608704,-0.013848847709596157,-0.019175328314304352,972569.0,418358257.0,1412183553.0,0.8632800579071045,0.39240002632141113,10.359360694885254,0.06604786962270737,0.7671714425086975,-0.08319491147994995
1412183552.548552,20.0,-0.038350656628608704,-0.013848847709596157,-0.019175328314304352,972571.0,438545822.0,1412183553.0,0.9810000658035278,0.5886000394821167,10.477080345153809,0.06922324746847153,0.7659012675285339,-0.08065461367368698
1412183552.558531,20.0,-0.038350656628608704,-0.012783551588654518,-0.020240623503923416,972572.0,448515272.0,1412183553.0,0.35316002368927,0.7455600500106812,10.634040832519531,0.07049340009689331,0.7722520232200623,-0.08637028932571411
1412183552.5686512,20.0,-0.038350656628608704,-0.012783551588654518,-0.019175328314304352,972574.0,468227640.0,1412183553.0,0.5101200342178345,1.05948007106781,10.751760482788086,0.07303370535373688,0.7595505118370056,-0.08128968626260757
1412183552.5787258,20.0,-0.038350656628608704,-0.012783551588654518,-0.02130592055618763,972575.0,478512832.0,1412183553.0,1.1379600763320923,0.6670800447463989,10.437840461730957,0.07303370535373688,0.7595505118370056,-0.08128968626260757
1412183552.5886598,20.0,-0.038350656628608704,-0.012783551588654518,-0.020240623503923416,972577.0,498297227.0,1412183553.0,0.70632004737854,1.1772000789642334,10.2416410446167,0.06985832750797272,0.7716169357299805,-0.08319491147994995
1412183552.5986867,20.0,-0.03728536143898964,-0.011718256399035454,-0.020240623503923416,972578.0,508252035.0,1412183553.0,0.5886000394821167,1.020240068435669,10.320120811462402,0.0628724917769432,0.7608206868171692,-0.08065461367368698
1412183552.6084752,20.0,-0.03941595181822777,-0.011718256399035454,-0.020240623503923416,972580.0,528398716.0,1412183553.0,0.47088003158569336,0.43164002895355225,10.28088092803955,0.06604786962270737,0.7595505118370056,-0.08255983889102936
1412183552.6184287,20.0,-0.038350656628608704,-0.011718256399035454,-0.02130592055618763,972581.0,538504539.0,1412183553.0,0.43164002895355225,0.7848000526428223,10.634040832519531,0.06414264440536499,0.7665363550186157,-0.08192475885152817
1412183552.6286976,20.0,-0.04048124700784683,-0.010652960278093815,-0.020240623503923416,972582.0,548279582.0,1412183553.0,0.2746800184249878,1.020240068435669,10.16316032409668,0.06668294221162796,0.7671714425086975,-0.08255983889102936
1412183552.6388729,20.0,-0.03941595181822777,-0.012783551588654518,-0.020240623503923416,972584.0,568227807.0,1412183553.0,0.6670800447463989,0.7455600500106812,10.437840461730957,0.06731802225112915,0.7608206868171692,-0.08192475885152817
1412183552.6487277,20.0,-0.03941595181822777,-0.012783551588654518,-0.02130592055618763,972585.0,578401113.0,1412183553.0,0.9417600631713867,0.8632800579071045,10.634040832519531,0.06668294221162796,0.7563751339912415,-0.08446506410837173
1412183552.6588738,20.0,-0.038350656628608704,-0.011718256399035454,-0.019175328314304352,972587.0,598551500.0,1412183553.0,0.6278400421142578,0.6278400421142578,10.437840461730957,0.06604786962270737,0.7716169357299805,-0.08255983889102936
1412183552.6687055,20.0,-0.038350656628608704,-0.011718256399035454,-0.02130592055618763,972588.0,608341983.0,1412183553.0,0.5493600368499756,0.5886000394821167,10.673280715942383,0.07620908319950104,0.77669757604599,-0.08446506410837173
1412183552.6785371,20.0,-0.038350656628608704,-0.012783551588654518,-0.02130592055618763,972590.0,628526537.0,1412183553.0,1.41264009475708,1.373400092124939,9.966960906982422,0.06922324746847153,0.7671714425086975,-0.08192475885152817
1412183552.688437,20.0,-0.03728536143898964,-0.010652960278093815,-0.020240623503923416,972591.0,638301220.0,1412183553.0,0.8632800579071045,0.8632800579071045,10.359360694885254,0.06922324746847153,0.7671714425086975,-0.08192475885152817
1412183552.6986582,20.0,-0.038350656628608704,-0.012783551588654518,-0.020240623503923416,972593.0,658322581.0,1412183553.0,0.6670800447463989,0.9025200605392456,10.320120811462402,0.06795309484004974,0.7722520232200623,-0.08446506410837173
1412183552.7088788,20.0,-0.03728536143898964,-0.012783551588654518,-0.020240623503923416,972594.0,668281640.0,1412183553.0,0.39240002632141113,0.9810000658035278,10.437840461730957,0.06731802225112915,0.7722520232200623,-0.08065461367368698
1412183552.7184825,20.0,-0.038350656628608704,-0.011718256399035454,-0.020240623503923416,972595.0,678163374.0,1412183553.0,0.5886000394821167,0.6670800447463989,10.359360694885254,0.06858817487955093,0.762090802192688,-0.08065461367368698
1412183552.7282574,20.0,-0.038350656628608704,-0.012783551588654518,-0.020240623503923416,972597.0,698447348.0,1412183553.0,0.43164002895355225,1.020240068435669,10.59480094909668,0.07049340009689331,0.7563751339912415,-0.08382999151945114
1412183552.7387326,20.0,-0.038350656628608704,-0.012783551588654518,-0.020240623503923416,972598.0,708185349.0,1412183553.0,0.3139200210571289,0.5886000394821167,10.59480094909668,0.06858817487955093,0.762090802192688,-0.08446506410837173
1412183552.7486584,20.0,-0.03941595181822777,-0.011718256399035454,-0.020240623503923416,972600.0,728472128.0,1412183553.0,0.6670800447463989,0.9025200605392456,10.437840461730957,0.06096726655960083,0.7709818482398987,-0.08255983889102936
1412183552.7585778,20.0,-0.038350656628608704,-0.011718256399035454,-0.02130592055618763,972601.0,738476354.0,1412183553.0,1.0987200736999512,0.7455600500106812,10.437840461730957,0.07049340009689331,0.7665363550186157,-0.08319491147994995
1412183552.7686095,20.0,-0.03941595181822777,-0.013848847709596157,-0.02130592055618763,972603.0,758518468.0,1412183553.0,0.47088003158569336,1.0987200736999512,10.516321182250977,0.06922324746847153,0.7665363550186157,-0.08128968626260757
1412183552.7788208,20.0,-0.038350656628608704,-0.012783551588654518,-0.019175328314304352,972604.0,768360466.0,1412183553.0,0.6278400421142578,0.70632004737854,10.634040832519531,0.06922324746847153,0.7665363550186157,-0.08128968626260757
1412183552.788463,20.0,-0.038350656628608704,-0.011718256399035454,-0.020240623503923416,972606.0,788208148.0,1412183553.0,0.23544001579284668,0.7848000526428223,10.751760482788086,0.06668294221162796,0.762090802192688,-0.08255983889102936
1412183552.7988374,20.0,-0.038350656628608704,-0.011718256399035454,-0.020240623503923416,972607.0,798331411.0,1412183553.0,0.6278400421142578,0.6670800447463989,10.634040832519531,0.07303370535373688,0.7716169357299805,-0.0793844610452652
1412183552.8086793,20.0,-0.03941595181822777,-0.013848847709596157,-0.020240623503923416,972608.0,808306692.0,1412183553.0,1.020240068435669,0.9417600631713867,10.16316032409668,0.07303370535373688,0.7716169357299805,-0.0793844610452652
1412183552.8185756,20.0,-0.038350656628608704,-0.012783551588654518,-0.020240623503923416,972610.0,828113694.0,1412183553.0,0.9025200605392456,0.47088003158569336,10.555561065673828,0.07239862531423569,0.7614557147026062,-0.08382999151945114
1412183552.828292,20.0,-0.03941595181822777,-0.012783551588654518,-0.020240623503923416,972611.0,838719596.0,1412183553.0,0.6278400421142578,1.1772000789642334,10.477080345153809,0.0711284726858139,0.7690766453742981,-0.08319491147994995
1412183552.8386996,20.0,-0.038350656628608704,-0.012783551588654518,-0.019175328314304352,972613.0,858395519.0,1412183553.0,1.2949200868606567,0.8240400552749634,10.437840461730957,0.06731802225112915,0.7563751339912415,-0.0870053693652153
1412183552.8484929,20.0,-0.038350656628608704,-0.012783551588654518,-0.020240623503923416,972614.0,868407284.0,1412183553.0,0.5493600368499756,0.7455600500106812,10.477080345153809,0.07747923582792282,0.7614557147026062,-0.08573521673679352
1412183552.858527,20.0,-0.03728536143898964,-0.012783551588654518,-0.020240623503923416,972616.0,888297639.0,1412183553.0,0.7848000526428223,0.5493600368499756,10.16316032409668,0.07493893057107925,0.7614557147026062,-0.08128968626260757
1412183552.8685672,20.0,-0.03728536143898964,-0.011718256399035454,-0.02130592055618763,972617.0,898571292.0,1412183553.0,0.9810000658035278,0.6670800447463989,10.516321182250977,0.06604786962270737,0.7614557147026062,-0.08128968626260757
1412183552.878801,20.0,-0.03941595181822777,-0.010652960278093815,-0.02130592055618763,972619.0,918291422.0,1412183553.0,0.8240400552749634,0.9417600631713867,10.712520599365234,0.06604786962270737,0.7716169357299805,-0.08255983889102936
1412183552.888677,20.0,-0.038350656628608704,-0.012783551588654518,-0.02130592055618763,972620.0,928256101.0,1412183553.0,0.35316002368927,1.2556800842285156,10.791000366210938,0.07557400315999985,0.7608206868171692,-0.08255983889102936
1412183552.8984234,20.0,-0.038350656628608704,-0.012783551588654518,-0.019175328314304352,972621.0,938374136.0,1412183553.0,1.3341600894927979,0.6278400421142578,10.006200790405273,0.07557400315999985,0.7608206868171692,-0.08255983889102936
1412183552.9088259,20.0,-0.03728536143898964,-0.012783551588654518,-0.020240623503923416,972623.0,958662094.0,1412183553.0,0.5101200342178345,0.39240002632141113,10.123920440673828,0.06731802225112915,0.7595505118370056,-0.08827552199363708
1412183552.9185562,20.0,-0.03941595181822777,-0.013848847709596157,-0.020240623503923416,972624.0,968318227.0,1412183553.0,0.35316002368927,0.8632800579071045,10.28088092803955,0.07366877794265747,0.7703468203544617,-0.08255983889102936
1412183552.928551,20.0,-0.038350656628608704,-0.011718256399035454,-0.020240623503923416,972626.0,988330709.0,1412183553.0,0.2746800184249878,1.1772000789642334,11.026440620422363,0.06922324746847153,0.7722520232200623,-0.08319491147994995
1412183552.9384983,20.0,-0.038350656628608704,-0.012783551588654518,-0.020240623503923416,972627.0,998302283.0,1412183553.0,1.1772000789642334,0.5886000394821167,10.359360694885254,0.07747923582792282,0.7614557147026062,-0.08255983889102936
1412183552.9488525,20.0,-0.03728536143898964,-0.011718256399035454,-0.020240623503923416,972629.0,18266127.0,1412183554.0,0.6278400421142578,0.5886000394821167,10.59480094909668,0.07366877794265747,0.7671714425086975,-0.0793844610452652
1412183552.9588387,20.0,-0.03941595181822777,-0.011718256399035454,-0.020240623503923416,972630.0,28527100.0,1412183554.0,0.7848000526428223,0.9025200605392456,10.202400207519531,0.06668294221162796,0.7646310925483704,-0.08192475885152817
1412183552.9685814,20.0,-0.038350656628608704,-0.012783551588654518,-0.020240623503923416,972632.0,48165222.0,1412183554.0,0.5101200342178345,1.2164400815963745,10.94796085357666,0.0635075643658638,0.7646310925483704,-0.07874938100576401
1412183552.978821,20.0,-0.038350656628608704,-0.012783551588654518,-0.019175328314304352,972633.0,58597933.0,1412183554.0,0.5493600368499756,1.2164400815963745,10.94796085357666,0.0635075643658638,0.7646310925483704,-0.07874938100576401
1412183552.9886513,20.0,-0.038350656628608704,-0.011718256399035454,-0.020240623503923416,972634.0,68426262.0,1412183554.0,0.70632004737854,0.70632004737854,10.398600578308105,0.06795309484004974,0.7703468203544617,-0.08065461367368698
1412183552.9986224,20.0,-0.03728536143898964,-0.012783551588654518,-0.02130592055618763,972636.0,88349976.0,1412183554.0,0.7455600500106812,0.6278400421142578,10.94796085357666,0.0717635527253151,0.7665363550186157,-0.08255983889102936
1412183553.0082982,20.0,-0.038350656628608704,-0.010652960278093815,-0.02130592055618763,972637.0,98631263.0,1412183554.0,0.7848000526428223,1.2556800842285156,11.026440620422363,0.07239862531423569,0.7747923135757446,-0.08382999151945114
1412183553.0185513,20.0,-0.038350656628608704,-0.010652960278093815,-0.02130592055618763,972639.0,118300129.0,1412183554.0,0.9810000658035278,0.8632800579071045,10.59480094909668,0.07366877794265747,0.7614557147026062,-0.08573521673679352
1412183553.0287373,20.0,-0.03728536143898964,-0.009587664157152176,-0.022371215745806694,972640.0,128407012.0,1412183554.0,1.0987200736999512,1.05948007106781,10.202400207519531,0.07049340009689331,0.7627258896827698,-0.08637028932571411
1412183553.0384738,20.0,-0.03728536143898964,-0.010652960278093815,-0.02130592055618763,972642.0,148335363.0,1412183554.0,0.5101200342178345,1.1772000789642334,10.477080345153809,0.07557400315999985,0.7614557147026062,-0.08065461367368698
1412183553.04838,20.0,-0.038350656628608704,-0.009587664157152176,-0.02130592055618763,972643.0,158381374.0,1412183554.0,0.47088003158569336,1.0987200736999512,10.634040832519531,0.0793844610452652,0.7563751339912415,-0.08573521673679352
1412183553.058769,20.0,-0.038350656628608704,-0.010652960278093815,-0.02130592055618763,972645.0,178367598.0,1412183554.0,0.35316002368927,1.2556800842285156,11.026440620422363,0.07430385053157806,0.7665363550186157,-0.08128968626260757
1412183553.068554,20.0,-0.038350656628608704,-0.010652960278093815,-0.02130592055618763,972646.0,188617110.0,1412183554.0,0.47088003158569336,1.41264009475708,10.437840461730957,0.07430385053157806,0.7665363550186157,-0.08128968626260757
1412183553.0785196,20.0,-0.03941595181822777,-0.010652960278093815,-0.02130592055618763,972647.0,198475959.0,1412183554.0,0.8240400552749634,0.8240400552749634,10.359360694885254,0.06858817487955093,0.7614557147026062,-0.08637028932571411
1412183553.088953,20.0,-0.038350656628608704,-0.009587664157152176,-0.02130592055618763,972649.0,218050143.0,1412183554.0,0.8632800579071045,0.70632004737854,10.516321182250977,0.0717635527253151,0.7563751339912415,-0.07747923582792282
1412183553.0986466,20.0,-0.038350656628608704,-0.010652960278093815,-0.020240623503923416,972650.0,228531417.0,1412183554.0,1.2164400815963745,0.6278400421142578,9.888481140136719,0.0717635527253151,0.7563751339912415,-0.07747923582792282
1412183553.1083722,20.0,-0.03728536143898964,-0.010652960278093815,-0.02130592055618763,972652.0,248228022.0,1412183554.0,0.8632800579071045,0.9025200605392456,10.634040832519531,0.07239862531423569,0.7512944936752319,-0.08446506410837173
1412183553.1187298,20.0,-0.038350656628608704,-0.010652960278093815,-0.022371215745806694,972653.0,258388130.0,1412183554.0,0.39240002632141113,0.7848000526428223,10.359360694885254,0.07747923582792282,0.7595505118370056,-0.08382999151945114
1412183553.12858,20.0,-0.03728536143898964,-0.011718256399035454,-0.02130592055618763,972655.0,278300743.0,1412183554.0,0.5101200342178345,0.7455600500106812,10.59480094909668,0.0717635527253151,0.7512944936752319,-0.08382999151945114
1412183553.1385562,20.0,-0.03941595181822777,-0.011718256399035454,-0.020240623503923416,972656.0,288507995.0,1412183554.0,0.70632004737854,0.9025200605392456,9.966960906982422,0.06604786962270737,0.7709818482398987,-0.0876404419541359
1412183553.1484509,20.0,-0.038350656628608704,-0.012783551588654518,-0.020240623503923416,972658.0,308324047.0,1412183554.0,0.6670800447463989,0.6670800447463989,10.084680557250977,0.06795309484004974,0.7709818482398987,-0.08128968626260757
1412183553.1587355,20.0,-0.03941595181822777,-0.013848847709596157,-0.020240623503923416,972659.0,318403065.0,1412183554.0,1.2949200868606567,0.7848000526428223,10.084680557250977,0.0711284726858139,0.7709818482398987,-0.08510013669729233
1412183553.16849,20.0,-0.038350656628608704,-0.013848847709596157,-0.019175328314304352,972660.0,328354964.0,1412183554.0,0.47088003158569336,0.7455600500106812,10.437840461730957,0.07747923582792282,0.777332603931427,-0.08255983889102936
1412183553.178426,20.0,-0.03728536143898964,-0.012783551588654518,-0.019175328314304352,972662.0,348251325.0,1412183554.0,0.5101200342178345,1.05948007106781,10.634040832519531,0.06477771699428558,0.7608206868171692,-0.07747923582792282
1412183553.1885743,20.0,-0.03941595181822777,-0.012783551588654518,-0.019175328314304352,972663.0,358428612.0,1412183554.0,0.5101200342178345,1.3341600894927979,10.516321182250977,0.06477771699428558,0.7608206868171692,-0.07747923582792282
1412183553.1987264,20.0,-0.038350656628608704,-0.012783551588654518,-0.020240623503923416,972665.0,378484359.0,1412183554.0,0.39240002632141113,0.7848000526428223,10.437840461730957,0.062237415462732315,0.7595505118370056,-0.08192475885152817
1412183553.2085092,20.0,-0.03728536143898964,-0.012783551588654518,-0.020240623503923416,972666.0,388301406.0,1412183554.0,0.8240400552749634,0.7455600500106812,10.16316032409668,0.0717635527253151,0.7659012675285339,-0.08637028932571411
1412183553.2185037,20.0,-0.03728536143898964,-0.011718256399035454,-0.020240623503923416,972668.0,408421543.0,1412183554.0,1.1379600763320923,0.47088003158569336,10.320120811462402,0.06731802225112915,0.7595505118370056,-0.08128968626260757
1412183553.2285569,20.0,-0.03728536143898964,-0.011718256399035454,-0.020240623503923416,972669.0,418290073.0,1412183554.0,0.47088003158569336,0.9810000658035278,10.28088092803955,0.07049340009689331,0.7512944936752319,-0.08319491147994995
1412183553.2386806,20.0,-0.038350656628608704,-0.011718256399035454,-0.02130592055618763,972671.0,438719229.0,1412183554.0,0.9025200605392456,0.43164002895355225,10.673280715942383,0.07430385053157806,0.7512944936752319,-0.08637028932571411
1412183553.24851,20.0,-0.038350656628608704,-0.010652960278093815,-0.02130592055618763,972672.0,448359599.0,1412183554.0,1.020240068435669,0.9810000658035278,10.830240249633789,0.059062037616968155,0.7563751339912415,-0.08065461367368698
1412183553.2585132,20.0,-0.038350656628608704,-0.010652960278093815,-0.020240623503923416,972673.0,458286226.0,1412183554.0,0.9025200605392456,0.7848000526428223,10.359360694885254,0.07239862531423569,0.7659012675285339,-0.08255983889102936
1412183553.2685564,20.0,-0.038350656628608704,-0.010652960278093815,-0.02130592055618763,972675.0,478352545.0,1412183554.0,0.43164002895355225,0.7848000526428223,10.477080345153809,0.06858817487955093,0.7665363550186157,-0.08382999151945114
1412183553.278541,20.0,-0.04048124700784683,-0.010652960278093815,-0.02130592055618763,972676.0,488382781.0,1412183554.0,0.8240400552749634,0.5493600368499756,10.869481086730957,0.06858817487955093,0.777332603931427,-0.08192475885152817
1412183553.2885911,20.0,-0.038350656628608704,-0.011718256399035454,-0.022371215745806694,972678.0,508326161.0,1412183554.0,0.8240400552749634,0.8240400552749634,10.398600578308105,0.06668294221162796,0.7716169357299805,-0.08192475885152817
1412183553.298759,20.0,-0.038350656628608704,-0.010652960278093815,-0.02130592055618763,972679.0,518415910.0,1412183554.0,0.03924000263214111,1.0987200736999512,10.28088092803955,0.06668294221162796,0.7716169357299805,-0.08192475885152817
1412183553.3086622,20.0,-0.038350656628608704,-0.010652960278093815,-0.020240623503923416,972681.0,538516323.0,1412183554.0,0.7848000526428223,0.7848000526428223,10.320120811462402,0.06477771699428558,0.762090802192688,-0.08510013669729233
1412183553.3184547,20.0,-0.03941595181822777,-0.012783551588654518,-0.020240623503923416,972682.0,548481130.0,1412183554.0,0.5886000394821167,1.020240068435669,10.59480094909668,0.0711284726858139,0.7512944936752319,-0.08255983889102936
1412183553.3284557,20.0,-0.038350656628608704,-0.012783551588654518,-0.020240623503923416,972684.0,568252799.0,1412183554.0,0.7455600500106812,0.8240400552749634,10.359360694885254,0.06985832750797272,0.7716169357299805,-0.08382999151945114
1412183553.3388395,20.0,-0.038350656628608704,-0.013848847709596157,-0.020240623503923416,972685.0,578550114.0,1412183554.0,0.9810000658035278,0.9025200605392456,10.59480094909668,0.07430385053157806,0.7665363550186157,-0.08255983889102936
1412183553.3485637,20.0,-0.03728536143898964,-0.011718256399035454,-0.019175328314304352,972686.0,588445146.0,1412183554.0,0.9417600631713867,0.5101200342178345,10.16316032409668,0.06858817487955093,0.7709818482398987,-0.07874938100576401
1412183553.3585181,20.0,-0.038350656628608704,-0.012783551588654518,-0.020240623503923416,972688.0,608280979.0,1412183554.0,0.5886000394821167,1.1772000789642334,10.555561065673828,0.0793844610452652,0.7627258896827698,-0.08192475885152817
1412183553.3681524,20.0,-0.038350656628608704,-0.012783551588654518,-0.02130592055618763,972689.0,618194469.0,1412183554.0,0.7455600500106812,0.8240400552749634,10.398600578308105,0.07303370535373688,0.7703468203544617,-0.08573521673679352
1412183553.3786216,20.0,-0.038350656628608704,-0.012783551588654518,-0.020240623503923416,972691.0,638490635.0,1412183554.0,0.6670800447463989,0.5101200342178345,10.2416410446167,0.06795309484004974,0.7709818482398987,-0.08065461367368698
1412183553.3886666,20.0,-0.038350656628608704,-0.012783551588654518,-0.019175328314304352,972692.0,648285864.0,1412183554.0,0.7848000526428223,0.70632004737854,10.202400207519531,0.06795309484004974,0.7709818482398987,-0.08065461367368698
1412183553.3984082,20.0,-0.038350656628608704,-0.011718256399035454,-0.020240623503923416,972694.0,668279230.0,1412183554.0,0.47088003158569336,0.8632800579071045,10.634040832519531,0.06604786962270737,0.7709818482398987,-0.08128968626260757
1412183553.4086745,20.0,-0.036220062524080276,-0.012783551588654518,-0.020240623503923416,972695.0,678295590.0,1412183554.0,0.9810000658035278,0.43164002895355225,10.006200790405273,0.06541279703378677,0.7563751339912415,-0.08382999151945114
1412183553.418544,20.0,-0.038350656628608704,-0.011718256399035454,-0.020240623503923416,972697.0,698531458.0,1412183554.0,0.70632004737854,1.020240068435669,10.555561065673828,0.0635075643658638,0.7671714425086975,-0.08192475885152817
1412183553.428436,20.0,-0.03941595181822777,-0.011718256399035454,-0.020240623503923416,972698.0,708376077.0,1412183554.0,0.19620001316070557,0.9810000658035278,10.59480094909668,0.07049340009689331,0.7722520232200623,-0.0876404419541359
1412183553.4387665,20.0,-0.03728536143898964,-0.011718256399035454,-0.02130592055618763,972699.0,718352374.0,1412183554.0,0.47088003158569336,0.9810000658035278,10.398600578308105,0.07747923582792282,0.7595505118370056,-0.08510013669729233
1412183553.4487095,20.0,-0.03941595181822777,-0.013848847709596157,-0.019175328314304352,972701.0,738265601.0,1412183554.0,0.47088003158569336,1.020240068435669,10.791000366210938,0.06541279703378677,0.7824132442474365,-0.08001953363418579
1412183553.4585397,20.0,-0.038350656628608704,-0.011718256399035454,-0.02130592055618763,972702.0,748395631.0,1412183554.0,0.8632800579071045,0.9810000658035278,10.2416410446167,0.06541279703378677,0.762090802192688,-0.08001953363418579
1412183553.468451,20.0,-0.038350656628608704,-0.011718256399035454,-0.020240623503923416,972704.0,768477921.0,1412183554.0,0.5886000394821167,0.8240400552749634,10.673280715942383,0.06922324746847153,0.7697117328643799,-0.08001953363418579
1412183553.4787846,20.0,-0.03728536143898964,-0.012783551588654518,-0.020240623503923416,972705.0,778413419.0,1412183554.0,1.05948007106781,0.9810000658035278,10.398600578308105,0.06922324746847153,0.7697117328643799,-0.08001953363418579
1412183553.4885058,20.0,-0.03941595181822777,-0.011718256399035454,-0.020240623503923416,972707.0,798298101.0,1412183554.0,0.47088003158569336,0.7455600500106812,10.28088092803955,0.0717635527253151,0.7709818482398987,-0.08255983889102936
1412183553.4984684,20.0,-0.038350656628608704,-0.011718256399035454,-0.019175328314304352,972708.0,808378835.0,1412183554.0,0.47088003158569336,0.8240400552749634,10.634040832519531,0.06731802225112915,0.7608206868171692,-0.08065461367368698
1412183553.508425,20.0,-0.038350656628608704,-0.012783551588654518,-0.020240623503923416,972710.0,828458195.0,1412183554.0,0.43164002895355225,0.7455600500106812,10.634040832519531,0.07493893057107925,0.7722520232200623,-0.08192475885152817
1412183553.5185113,20.0,-0.038350656628608704,-0.011718256399035454,-0.019175328314304352,972711.0,838544998.0,1412183554.0,1.05948007106781,1.0987200736999512,10.477080345153809,0.0711284726858139,0.7665363550186157,-0.08255983889102936
1412183553.528622,20.0,-0.038350656628608704,-0.012783551588654518,-0.020240623503923416,972712.0,848316097.0,1412183554.0,0.8632800579071045,0.5886000394821167,10.2416410446167,0.06668294221162796,0.7716169357299805,-0.07811430841684341
1412183553.5386932,20.0,-0.03728536143898964,-0.011718256399035454,-0.020240623503923416,972714.0,868432120.0,1412183554.0,0.9417600631713867,1.05948007106781,10.712520599365234,0.07366877794265747,0.7709818482398987,-0.08382999151945114
1412183553.5485241,20.0,-0.03728536143898964,-0.012783551588654518,-0.020240623503923416,972715.0,878426150.0,1412183554.0,0.9810000658035278,1.1772000789642334,10.634040832519531,0.07493893057107925,0.7601855993270874,-0.08255983889102936
1412183553.5584936,20.0,-0.03941595181822777,-0.011718256399035454,-0.020240623503923416,972717.0,898508015.0,1412183554.0,0.6278400421142578,0.70632004737854,10.830240249633789,0.06541279703378677,0.7570102214813232,-0.08637028932571411
1412183553.5684128,20.0,-0.03941595181822777,-0.013848847709596157,-0.018110031262040138,972718.0,908261509.0,1412183554.0,0.39240002632141113,0.7455600500106812,10.123920440673828,0.06668294221162796,0.7570102214813232,-0.08192475885152817
1412183553.5786033,20.0,-0.038350656628608704,-0.011718256399035454,-0.02130592055618763,972720.0,928259224.0,1412183554.0,1.05948007106781,0.43164002895355225,10.202400207519531,0.06985832750797272,0.7595505118370056,-0.0793844610452652
1412183553.5887394,20.0,-0.038350656628608704,-0.012783551588654518,-0.020240623503923416,972721.0,938545801.0,1412183554.0,0.47088003158569336,1.1379600763320923,10.437840461730957,0.06985832750797272,0.7595505118370056,-0.0793844610452652
1412183553.599015,20.0,-0.03728536143898964,-0.011718256399035454,-0.020240623503923416,972723.0,958278645.0,1412183554.0,0.5886000394821167,1.05948007106781,10.791000366210938,0.06160233914852142,0.7709818482398987,-0.08446506410837173
1412183553.6085649,20.0,-0.038350656628608704,-0.011718256399035454,-0.022371215745806694,972724.0,968222038.0,1412183554.0,1.0987200736999512,0.3139200210571289,9.966960906982422,0.0711284726858139,0.7671714425086975,-0.08001953363418579
1412183553.6188107,20.0,-0.038350656628608704,-0.011718256399035454,-0.020240623503923416,972725.0,978358526.0,1412183554.0,0.35316002368927,1.2164400815963745,11.026440620422363,0.06477771699428558,0.7671714425086975,-0.08446506410837173
1412183553.628751,20.0,-0.036220062524080276,-0.012783551588654518,-0.02130592055618763,972727.0,998535001.0,1412183554.0,1.020240068435669,1.2164400815963745,10.751760482788086,0.07430385053157806,0.7665363550186157,-0.08065461367368698
1412183553.6385138,20.0,-0.038350656628608704,-0.011718256399035454,-0.020240623503923416,972728.0,8525645.0,1412183555.0,0.9810000658035278,1.3341600894927979,10.634040832519531,0.0711284726858139,0.7722520232200623,-0.08382999151945114
1412183553.6486979,20.0,-0.03728536143898964,-0.011718256399035454,-0.02130592055618763,972730.0,28227564.0,1412183555.0,0.35316002368927,0.6670800447463989,10.28088092803955,0.06858817487955093,0.7716169357299805,-0.08319491147994995
1412183553.65855,20.0,-0.03728536143898964,-0.009587664157152176,-0.02130592055618763,972731.0,38545380.0,1412183555.0,1.2556800842285156,0.23544001579284668,10.2416410446167,0.0793844610452652,0.7563751339912415,-0.08255983889102936
1412183553.6685472,20.0,-0.038350656628608704,-0.011718256399035454,-0.02130592055618763,972733.0,58307599.0,1412183555.0,1.020240068435669,1.0987200736999512,10.869481086730957,0.06668294221162796,0.7665363550186157,-0.08382999151945114
1412183553.6783712,20.0,-0.038350656628608704,-0.011718256399035454,-0.020240623503923416,972734.0,68285296.0,1412183555.0,0.6670800447463989,1.1379600763320923,10.16316032409668,0.06668294221162796,0.7665363550186157,-0.08382999151945114
1412183553.6888359,20.0,-0.038350656628608704,-0.012783551588654518,-0.020240623503923416,972736.0,88463006.0,1412183555.0,0.9417600631713867,0.6670800447463989,10.2416410446167,0.06985832750797272,0.7722520232200623,-0.08128968626260757
1412183553.698628,20.0,-0.038350656628608704,-0.012783551588654518,-0.02130592055618763,972737.0,98220122.0,1412183555.0,0.8240400552749634,0.6670800447463989,10.2416410446167,0.06922324746847153,0.7614557147026062,-0.0793844610452652
1412183553.7083864,20.0,-0.038350656628608704,-0.012783551588654518,-0.020240623503923416,972738.0,108085330.0,1412183555.0,1.2556800842285156,0.5886000394821167,10.2416410446167,0.06922324746847153,0.7614557147026062,-0.0793844610452652
1412183553.718673,20.0,-0.038350656628608704,-0.012783551588654518,-0.020240623503923416,972740.0,128399028.0,1412183555.0,0.6670800447463989,0.7455600500106812,10.2416410446167,0.06541279703378677,0.7665363550186157,-0.08319491147994995
1412183553.7286925,20.0,-0.038350656628608704,-0.012783551588654518,-0.02130592055618763,972741.0,138394586.0,1412183555.0,1.2164400815963745,0.47088003158569336,9.92772102355957,0.07049340009689331,0.7557400465011597,-0.0870053693652153
1412183553.738672,20.0,-0.038350656628608704,-0.011718256399035454,-0.020240623503923416,972743.0,158465406.0,1412183555.0,0.9025200605392456,0.8632800579071045,10.084680557250977,0.0711284726858139,0.7722520232200623,-0.0793844610452652
1412183553.7485754,20.0,-0.038350656628608704,-0.013848847709596157,-0.020240623503923416,972744.0,168218185.0,1412183555.0,0.39240002632141113,0.70632004737854,10.59480094909668,0.07747923582792282,0.7614557147026062,-0.08510013669729233
1412183553.7587333,20.0,-0.038350656628608704,-0.010652960278093815,-0.019175328314304352,972746.0,188415107.0,1412183555.0,0.5886000394821167,0.8240400552749634,10.477080345153809,0.06541279703378677,0.7716169357299805,-0.0793844610452652
1412183553.7685652,20.0,-0.03941595181822777,-0.011718256399035454,-0.019175328314304352,972747.0,198322889.0,1412183555.0,0.3139200210571289,0.9025200605392456,10.712520599365234,0.06541279703378677,0.7716169357299805,-0.0793844610452652
1412183553.778443,20.0,-0.038350656628608704,-0.011718256399035454,-0.022371215745806694,972749.0,218497504.0,1412183555.0,0.5886000394821167,0.7455600500106812,10.516321182250977,0.07049340009689331,0.7595505118370056,-0.08065461367368698
1412183553.7883966,20.0,-0.038350656628608704,-0.011718256399035454,-0.020240623503923416,972750.0,228331809.0,1412183555.0,0.70632004737854,1.020240068435669,10.673280715942383,0.06604786962270737,0.7595505118370056,-0.08065461367368698
1412183553.7985399,20.0,-0.03941595181822777,-0.012783551588654518,-0.020240623503923416,972751.0,238456724.0,1412183555.0,0.8632800579071045,0.7455600500106812,10.437840461730957,0.06604786962270737,0.7595505118370056,-0.08065461367368698
1412183553.8085268,20.0,-0.03941595181822777,-0.011718256399035454,-0.020240623503923416,972753.0,258450741.0,1412183555.0,0.8632800579071045,0.70632004737854,11.065680503845215,0.06795309484004974,0.762090802192688,-0.08001953363418579
1412183553.8184843,20.0,-0.03728536143898964,-0.011718256399035454,-0.020240623503923416,972754.0,268421060.0,1412183555.0,0.8632800579071045,0.7455600500106812,10.437840461730957,0.07049340009689331,0.7722520232200623,-0.08382999151945114
1412183553.8283076,20.0,-0.03728536143898964,-0.012783551588654518,-0.020240623503923416,972756.0,288749004.0,1412183555.0,0.5493600368499756,0.70632004737854,10.634040832519531,0.07747923582792282,0.7646310925483704,-0.08065461367368698
1412183553.8389375,20.0,-0.038350656628608704,-0.012783551588654518,-0.020240623503923416,972757.0,298438257.0,1412183555.0,0.9417600631713867,1.0987200736999512,10.516321182250977,0.07366877794265747,0.7608206868171692,-0.08128968626260757
1412183553.8485243,20.0,-0.038350656628608704,-0.012783551588654518,-0.020240623503923416,972759.0,318446260.0,1412183555.0,0.6278400421142578,0.9810000658035278,10.869481086730957,0.0717635527253151,0.7646310925483704,-0.07811430841684341
1412183553.8586028,20.0,-0.038350656628608704,-0.012783551588654518,-0.02130592055618763,972760.0,328364494.0,1412183555.0,0.8632800579071045,0.5493600368499756,10.477080345153809,0.0711284726858139,0.7709818482398987,-0.08128968626260757
1412183553.8686333,20.0,-0.038350656628608704,-0.011718256399035454,-0.02130592055618763,972762.0,348355907.0,1412183555.0,0.6278400421142578,1.05948007106781,10.477080345153809,0.07366877794265747,0.7595505118370056,-0.08510013669729233
1412183553.8785954,20.0,-0.038350656628608704,-0.010652960278093815,-0.020240623503923416,972763.0,358309809.0,1412183555.0,1.020240068435669,0.5886000394821167,10.006200790405273,0.07366877794265747,0.7595505118370056,-0.08510013669729233
1412183553.8885033,20.0,-0.038350656628608704,-0.011718256399035454,-0.020240623503923416,972764.0,368184854.0,1412183555.0,0.9025200605392456,0.9025200605392456,10.437840461730957,0.07620908319950104,0.7646310925483704,-0.08128968626260757
1412183553.8987875,20.0,-0.038350656628608704,-0.011718256399035454,-0.02130592055618763,972766.0,388249797.0,1412183555.0,0.7455600500106812,0.6278400421142578,10.398600578308105,0.07049340009689331,0.7589154243469238,-0.0876404419541359
1412183553.9085906,20.0,-0.038350656628608704,-0.010652960278093815,-0.02130592055618763,972767.0,398500539.0,1412183555.0,0.9025200605392456,0.8632800579071045,10.555561065673828,0.07049340009689331,0.7722520232200623,-0.08255983889102936
1412183553.9186826,20.0,-0.038350656628608704,-0.011718256399035454,-0.020240623503923416,972769.0,418345355.0,1412183555.0,0.5886000394821167,0.6278400421142578,10.555561065673828,0.06477771699428558,0.7716169357299805,-0.07874938100576401
1412183553.928485,20.0,-0.038350656628608704,-0.011718256399035454,-0.019175328314304352,972770.0,428386697.0,1412183555.0,0.6278400421142578,0.5886000394821167,10.398600578308105,0.0711284726858139,0.7627258896827698,-0.08510013669729233
1412183553.9385648,20.0,-0.038350656628608704,-0.011718256399035454,-0.02130592055618763,972772.0,448459550.0,1412183555.0,0.5886000394821167,1.3341600894927979,10.2416410446167,0.06731802225112915,0.7595505118370056,-0.08128968626260757
1412183553.9486609,20.0,-0.03728536143898964,-0.012783551588654518,-0.020240623503923416,972773.0,458165489.0,1412183555.0,1.3341600894927979,0.39240002632141113,10.123920440673828,0.07747923582792282,0.7614557147026062,-0.08001953363418579
1412183553.9588552,20.0,-0.03941595181822777,-0.013848847709596157,-0.020240623503923416,972775.0,478359358.0,1412183555.0,0.35316002368927,0.7455600500106812,10.398600578308105,0.06414264440536499,0.7665363550186157,-0.08446506410837173
1412183553.9685314,20.0,-0.038350656628608704,-0.012783551588654518,-0.02130592055618763,972776.0,488356648.0,1412183555.0,1.373400092124939,0.5493600368499756,10.045440673828125,0.06414264440536499,0.7665363550186157,-0.08446506410837173
1412183553.978633,20.0,-0.038350656628608704,-0.012783551588654518,-0.02130592055618763,972777.0,498268082.0,1412183555.0,0.7848000526428223,0.7848000526428223,10.516321182250977,0.06922324746847153,0.7614557147026062,-0.08128968626260757
1412183553.98856,20.0,-0.03728536143898964,-0.011718256399035454,-0.019175328314304352,972779.0,518367904.0,1412183555.0,0.5886000394821167,1.2164400815963745,10.908720970153809,0.06858817487955093,0.7614557147026062,-0.08382999151945114
1412183553.998488,20.0,-0.03728536143898964,-0.012783551588654518,-0.020240623503923416,972780.0,528326691.0,1412183555.0,0.70632004737854,0.8632800579071045,11.144161224365234,0.06858817487955093,0.7614557147026062,-0.08382999151945114
1412183554.0086074,20.0,-0.038350656628608704,-0.011718256399035454,-0.02130592055618763,972782.0,548570447.0,1412183555.0,0.7455600500106812,0.5493600368499756,10.202400207519531,0.0635075643658638,0.7716169357299805,-0.08319491147994995
1412183554.0185077,20.0,-0.038350656628608704,-0.011718256399035454,-0.019175328314304352,972783.0,558506325.0,1412183555.0,0.7455600500106812,0.47088003158569336,10.320120811462402,0.07366877794265747,0.7639960646629333,-0.08001953363418579
1412183554.0287204,20.0,-0.038350656628608704,-0.012783551588654518,-0.02130592055618763,972785.0,578508182.0,1412183555.0,0.5886000394821167,0.8632800579071045,10.516321182250977,0.07239862531423569,0.7627258896827698,-0.0870053693652153
1412183554.0387626,20.0,-0.038350656628608704,-0.012783551588654518,-0.020240623503923416,972786.0,588393037.0,1412183555.0,0.3139200210571289,0.5493600368499756,10.516321182250977,0.06858817487955093,0.7570102214813232,-0.08319491147994995
1412183554.0483634,20.0,-0.03728536143898964,-0.011718256399035454,-0.020240623503923416,972788.0,608381439.0,1412183555.0,1.1772000789642334,0.6670800447463989,10.28088092803955,0.06985832750797272,0.7786027789115906,-0.07874938100576401
1412183554.058793,20.0,-0.03728536143898964,-0.011718256399035454,-0.018110031262040138,972789.0,618211191.0,1412183555.0,1.020240068435669,0.7455600500106812,10.28088092803955,0.06985832750797272,0.7786027789115906,-0.08001953363418579
1412183554.068655,20.0,-0.03941595181822777,-0.012783551588654518,-0.020240623503923416,972790.0,628227859.0,1412183555.0,0.6670800447463989,0.7455600500106812,10.516321182250977,0.07366877794265747,0.777332603931427,-0.08255983889102936
1412183554.078574,20.0,-0.03941595181822777,-0.012783551588654518,-0.020240623503923416,972792.0,648476333.0,1412183555.0,0.2746800184249878,0.6670800447463989,10.28088092803955,0.06795309484004974,0.7608206868171692,-0.08065461367368698
1412183554.088559,20.0,-0.03728536143898964,-0.010652960278093815,-0.019175328314304352,972793.0,658259341.0,1412183555.0,0.70632004737854,1.1772000789642334,10.28088092803955,0.06795309484004974,0.7608206868171692,-0.08065461367368698
1412183554.0988183,20.0,-0.038350656628608704,-0.012783551588654518,-0.019175328314304352,972795.0,678391331.0,1412183555.0,0.5886000394821167,1.2556800842285156,10.673280715942383,0.07684415578842163,0.7678064703941345,-0.08001953363418579
1412183554.1084008,20.0,-0.03728536143898964,-0.012783551588654518,-0.020240623503923416,972796.0,688566404.0,1412183555.0,0.70632004737854,1.05948007106781,10.830240249633789,0.08001953363418579,0.7614557147026062,-0.08128968626260757
1412183554.1184592,20.0,-0.03941595181822777,-0.011718256399035454,-0.019175328314304352,972798.0,708238966.0,1412183555.0,0.9025200605392456,1.020240068435669,10.2416410446167,0.06160233914852142,0.7709818482398987,-0.08001953363418579
1412183554.1286302,20.0,-0.03941595181822777,-0.011718256399035454,-0.020240623503923416,972799.0,718572578.0,1412183555.0,0.70632004737854,1.020240068435669,10.477080345153809,0.07430385053157806,0.772887110710144,-0.08382999151945114
1412183554.1385212,20.0,-0.038350656628608704,-0.011718256399035454,-0.020240623503923416,972801.0,738139531.0,1412183555.0,0.6670800447463989,1.05948007106781,10.634040832519531,0.06477771699428558,0.7716169357299805,-0.08065461367368698
1412183554.14854,20.0,-0.03728536143898964,-0.011718256399035454,-0.020240623503923416,972802.0,748697282.0,1412183555.0,0.6670800447463989,0.9417600631713867,10.516321182250977,0.07303370535373688,0.7684415578842163,-0.08637028932571411
1412183554.1586204,20.0,-0.038350656628608704,-0.012783551588654518,-0.020240623503923416,972803.0,758317897.0,1412183555.0,0.9417600631713867,0.8240400552749634,10.437840461730957,0.07049340009689331,0.7690766453742981,-0.08128968626260757
1412183554.1684082,20.0,-0.038350656628608704,-0.011718256399035454,-0.020240623503923416,972805.0,778133254.0,1412183555.0,0.7455600500106812,1.0987200736999512,10.712520599365234,0.06985832750797272,0.7614557147026062,-0.08192475885152817
1412183554.1785886,20.0,-0.038350656628608704,-0.011718256399035454,-0.020240623503923416,972806.0,788550910.0,1412183555.0,0.70632004737854,0.8240400552749634,10.555561065673828,0.06033219024538994,0.7735221982002258,-0.08001953363418579
1412183554.1888494,20.0,-0.038350656628608704,-0.012783551588654518,-0.020240623503923416,972808.0,808284488.0,1412183555.0,0.8240400552749634,0.39240002632141113,10.084680557250977,0.06985832750797272,0.7703468203544617,-0.0793844610452652
1412183554.1987224,20.0,-0.03728536143898964,-0.011718256399035454,-0.020240623503923416,972809.0,818520952.0,1412183555.0,0.5886000394821167,0.47088003158569336,10.202400207519531,0.06604786962270737,0.7563751339912415,-0.07874938100576401
1412183554.2085438,20.0,-0.038350656628608704,-0.012783551588654518,-0.019175328314304352,972811.0,838445941.0,1412183555.0,0.8632800579071045,0.9810000658035278,10.398600578308105,0.06795309484004974,0.7709818482398987,-0.07684415578842163
1412183554.2182517,20.0,-0.038350656628608704,-0.011718256399035454,-0.020240623503923416,972812.0,848305918.0,1412183555.0,0.9025200605392456,1.1772000789642334,11.065680503845215,0.06668294221162796,0.7716169357299805,-0.08255983889102936
1412183554.2287452,20.0,-0.03728536143898964,-0.012783551588654518,-0.020240623503923416,972814.0,868232115.0,1412183555.0,0.7848000526428223,1.020240068435669,10.673280715942383,0.06731802225112915,0.7690766453742981,-0.07874938100576401
1412183554.2392135,20.0,-0.038350656628608704,-0.011718256399035454,-0.02130592055618763,972815.0,878276435.0,1412183555.0,0.6278400421142578,1.41264009475708,11.183401107788086,0.07747923582792282,0.7614557147026062,-0.07811430841684341
1412183554.2483974,20.0,-0.038350656628608704,-0.012783551588654518,-0.020240623503923416,972816.0,888545789.0,1412183555.0,0.19620001316070557,1.020240068435669,10.555561065673828,0.07239862531423569,0.7608206868171692,-0.08255983889102936
1412183554.258553,20.0,-0.03941595181822777,-0.012783551588654518,-0.020240623503923416,972818.0,908479915.0,1412183555.0,0.43164002895355225,0.9810000658035278,10.830240249633789,0.07620908319950104,0.7627258896827698,-0.08255983889102936
1412183554.2686377,20.0,-0.038350656628608704,-0.012783551588654518,-0.020240623503923416,972819.0,918305381.0,1412183555.0,1.2164400815963745,0.70632004737854,10.359360694885254,0.06858817487955093,0.7722520232200623,-0.07747923582792282
1412183554.278491,20.0,-0.038350656628608704,-0.012783551588654518,-0.02130592055618763,972821.0,938356792.0,1412183555.0,1.020240068435669,0.35316002368927,9.8100004196167,0.07430385053157806,0.7614557147026062,-0.0793844610452652
1412183554.288736,20.0,-0.038350656628608704,-0.012783551588654518,-0.020240623503923416,972822.0,948386189.0,1412183555.0,0.47088003158569336,1.2164400815963745,10.751760482788086,0.07430385053157806,0.7614557147026062,-0.0793844610452652
1412183554.2987306,20.0,-0.03941595181822777,-0.011718256399035454,-0.020240623503923416,972824.0,968491193.0,1412183555.0,1.020240068435669,1.0987200736999512,10.634040832519531,0.0711284726858139,0.7722520232200623,-0.08446506410837173
1412183554.3085113,20.0,-0.03728536143898964,-0.011718256399035454,-0.02130592055618763,972825.0,978288969.0,1412183555.0,0.9417600631713867,1.1379600763320923,10.555561065673828,0.06414264440536499,0.762090802192688,-0.08001953363418579
1412183554.3186274,20.0,-0.038350656628608704,-0.013848847709596157,-0.019175328314304352,972827.0,998580938.0,1412183555.0,0.3139200210571289,1.05948007106781,10.477080345153809,0.06668294221162796,0.7690766453742981,-0.08192475885152817
1412183554.3285575,20.0,-0.038350656628608704,-0.013848847709596157,-0.019175328314304352,972828.0,8484805.0,1412183556.0,0.70632004737854,0.5493600368499756,10.28088092803955,0.07430385053157806,0.7595505118370056,-0.07811430841684341
1412183554.338758,20.0,-0.038350656628608704,-0.012783551588654518,-0.020240623503923416,972830.0,28220464.0,1412183556.0,0.8240400552749634,0.5101200342178345,10.28088092803955,0.07239862531423569,0.7722520232200623,-0.08065461367368698
1412183554.348416,20.0,-0.03941595181822777,-0.012783551588654518,-0.020240623503923416,972831.0,38518200.0,1412183556.0,0.47088003158569336,0.9025200605392456,11.575800895690918,0.0635075643658638,0.772887110710144,-0.08510013669729233
1412183554.3586495,20.0,-0.03941595181822777,-0.011718256399035454,-0.020240623503923416,972832.0,48395265.0,1412183556.0,0.5886000394821167,0.43164002895355225,10.359360694885254,0.0717635527253151,0.7646310925483704,-0.08255983889102936
1412183554.368503,20.0,-0.038350656628608704,-0.013848847709596157,-0.020240623503923416,972834.0,68329456.0,1412183556.0,0.5886000394821167,1.05948007106781,11.30112075805664,0.06541279703378677,0.7614557147026062,-0.08192475885152817
1412183554.3787403,20.0,-0.038350656628608704,-0.011718256399035454,-0.020240623503923416,972835.0,78234197.0,1412183556.0,0.43164002895355225,1.020240068435669,10.555561065673828,0.06541279703378677,0.7614557147026062,-0.08192475885152817
1412183554.3884683,20.0,-0.03728536143898964,-0.013848847709596157,-0.02130592055618763,972837.0,98433408.0,1412183556.0,0.7455600500106812,0.7455600500106812,10.2416410446167,0.07303370535373688,0.7627258896827698,-0.08573521673679352
1412183554.3987443,20.0,-0.03728536143898964,-0.011718256399035454,-0.02130592055618763,972838.0,108575885.0,1412183556.0,0.2746800184249878,1.0987200736999512,11.104920387268066,0.0635075643658638,0.7608206868171692,-0.08319491147994995
1412183554.4086258,20.0,-0.038350656628608704,-0.011718256399035454,-0.020240623503923416,972840.0,128279127.0,1412183556.0,0.6278400421142578,1.1772000789642334,10.59480094909668,0.06858817487955093,0.7671714425086975,-0.08001953363418579
1412183554.418493,20.0,-0.038350656628608704,-0.011718256399035454,-0.020240623503923416,972841.0,138750014.0,1412183556.0,0.5101200342178345,0.8632800579071045,10.555561065673828,0.06858817487955093,0.7665363550186157,-0.08065461367368698
1412183554.4284313,20.0,-0.038350656628608704,-0.012783551588654518,-0.020240623503923416,972842.0,148279316.0,1412183556.0,0.5493600368499756,1.41264009475708,10.123920440673828,0.07430385053157806,0.7697117328643799,-0.08573521673679352
1412183554.4389317,20.0,-0.03941595181822777,-0.012783551588654518,-0.020240623503923416,972844.0,168129017.0,1412183556.0,0.6278400421142578,1.0987200736999512,10.477080345153809,0.06858817487955093,0.7639960646629333,-0.08128968626260757
1412183554.4486027,20.0,-0.038350656628608704,-0.011718256399035454,-0.019175328314304352,972845.0,178251626.0,1412183556.0,0.70632004737854,0.70632004737854,10.16316032409668,0.0717635527253151,0.7671714425086975,-0.07747923582792282
1412183554.4584534,20.0,-0.038350656628608704,-0.011718256399035454,-0.019175328314304352,972847.0,198206994.0,1412183556.0,0.5886000394821167,1.020240068435669,10.59480094909668,0.0711284726858139,0.7639960646629333,-0.08255983889102936
1412183554.4683926,20.0,-0.03728536143898964,-0.011718256399035454,-0.019175328314304352,972848.0,208254572.0,1412183556.0,0.39240002632141113,0.7455600500106812,10.59480094909668,0.06985832750797272,0.7671714425086975,-0.08192475885152817
1412183554.4785361,20.0,-0.038350656628608704,-0.012783551588654518,-0.020240623503923416,972850.0,228228575.0,1412183556.0,0.39240002632141113,0.7848000526428223,10.712520599365234,0.06731802225112915,0.7722520232200623,-0.08065461367368698
1412183554.4886136,20.0,-0.03941595181822777,-0.013848847709596157,-0.019175328314304352,972851.0,238546606.0,1412183556.0,0.2746800184249878,0.7455600500106812,10.751760482788086,0.06668294221162796,0.7639960646629333,-0.08192475885152817
1412183554.4985697,20.0,-0.03941595181822777,-0.012783551588654518,-0.020240623503923416,972853.0,258269126.0,1412183556.0,1.05948007106781,0.8632800579071045,10.045440673828125,0.06731802225112915,0.7570102214813232,-0.08637028932571411
1412183554.5085273,20.0,-0.03941595181822777,-0.012783551588654518,-0.020240623503923416,972854.0,268309843.0,1412183556.0,0.5101200342178345,1.5303601026535034,11.104920387268066,0.07239862531423569,0.7722520232200623,-0.08065461367368698
1412183554.5185869,20.0,-0.03728536143898964,-0.012783551588654518,-0.020240623503923416,972855.0,278517508.0,1412183556.0,0.5886000394821167,1.1379600763320923,10.477080345153809,0.07430385053157806,0.7595505118370056,-0.0793844610452652
1412183554.5290644,20.0,-0.038350656628608704,-0.012783551588654518,-0.020240623503923416,972857.0,298479326.0,1412183556.0,0.9025200605392456,0.9810000658035278,9.731520652770996,0.07239862531423569,0.7716169357299805,-0.08192475885152817
1412183554.538718,20.0,-0.038350656628608704,-0.012783551588654518,-0.019175328314304352,972858.0,308508461.0,1412183556.0,0.39240002632141113,1.373400092124939,10.59480094909668,0.0628724917769432,0.7601855993270874,-0.08128968626260757
1412183554.5486748,20.0,-0.038350656628608704,-0.012783551588654518,-0.020240623503923416,972860.0,328492922.0,1412183556.0,0.6278400421142578,1.2949200868606567,10.59480094909668,0.07811430841684341,0.7608206868171692,-0.08128968626260757
1412183554.558654,20.0,-0.038350656628608704,-0.012783551588654518,-0.020240623503923416,972861.0,338491445.0,1412183556.0,0.70632004737854,0.6278400421142578,10.516321182250977,0.06858817487955093,0.7595505118370056,-0.07874938100576401
1412183554.568456,20.0,-0.03728536143898964,-0.011718256399035454,-0.022371215745806694,972863.0,358203519.0,1412183556.0,0.70632004737854,0.9810000658035278,10.555561065673828,0.06858817487955093,0.7595505118370056,-0.08128968626260757
1412183554.5787687,20.0,-0.038350656628608704,-0.011718256399035454,-0.02130592055618763,972864.0,368336267.0,1412183556.0,1.1379600763320923,0.7848000526428223,10.084680557250977,0.06858817487955093,0.7595505118370056,-0.08128968626260757
1412183554.5886557,20.0,-0.03941595181822777,-0.012783551588654518,-0.020240623503923416,972866.0,388300273.0,1412183556.0,0.7455600500106812,0.8632800579071045,10.791000366210938,0.07239862531423569,0.7614557147026062,-0.08382999151945114
1412183554.5986848,20.0,-0.03941595181822777,-0.011718256399035454,-0.019175328314304352,972867.0,398355250.0,1412183556.0,0.70632004737854,0.8240400552749634,10.437840461730957,0.0628724917769432,0.7614557147026062,-0.08255983889102936
1412183554.6084871,20.0,-0.038350656628608704,-0.012783551588654518,-0.020240623503923416,972868.0,408186375.0,1412183556.0,0.5886000394821167,1.020240068435669,10.555561065673828,0.0628724917769432,0.7614557147026062,-0.08255983889102936
1412183554.6184242,20.0,-0.03728536143898964,-0.013848847709596157,-0.019175328314304352,972870.0,428355578.0,1412183556.0,1.0987200736999512,0.8240400552749634,9.966960906982422,0.06858817487955093,0.7709818482398987,-0.07874938100576401
1412183554.6288126,20.0,-0.038350656628608704,-0.013848847709596157,-0.020240623503923416,972871.0,438485166.0,1412183556.0,0.6670800447463989,1.2949200868606567,10.555561065673828,0.07303370535373688,0.7608206868171692,-0.08446506410837173
1412183554.6386938,20.0,-0.038350656628608704,-0.011718256399035454,-0.019175328314304352,972873.0,458327142.0,1412183556.0,0.6278400421142578,0.9417600631713867,10.2416410446167,0.07239862531423569,0.7614557147026062,-0.08128968626260757
1412183554.6484869,20.0,-0.03941595181822777,-0.011718256399035454,-0.020240623503923416,972874.0,468308605.0,1412183556.0,1.05948007106781,0.8240400552749634,10.359360694885254,0.07430385053157806,0.7722520232200623,-0.07874938100576401
1412183554.65881,20.0,-0.03728536143898964,-0.010652960278093815,-0.020240623503923416,972876.0,488151258.0,1412183556.0,0.7455600500106812,0.7848000526428223,10.28088092803955,0.0711284726858139,0.7570102214813232,-0.08065461367368698
1412183554.6684675,20.0,-0.03728536143898964,-0.011718256399035454,-0.020240623503923416,972877.0,498406142.0,1412183556.0,0.7848000526428223,0.8240400552749634,10.751760482788086,0.0711284726858139,0.7570102214813232,-0.08065461367368698
1412183554.6785383,20.0,-0.03941595181822777,-0.011718256399035454,-0.02130592055618763,972879.0,518325971.0,1412183556.0,0.5101200342178345,0.5493600368499756,10.398600578308105,0.0711284726858139,0.7614557147026062,-0.08192475885152817
1412183554.688847,20.0,-0.03728536143898964,-0.012783551588654518,-0.020240623503923416,972880.0,528493096.0,1412183556.0,0.7848000526428223,0.9810000658035278,10.791000366210938,0.07239862531423569,0.7697117328643799,-0.08382999151945114
1412183554.6987321,20.0,-0.038350656628608704,-0.011718256399035454,-0.02130592055618763,972882.0,548357002.0,1412183556.0,0.43164002895355225,1.020240068435669,10.398600578308105,0.07493893057107925,0.7709818482398987,-0.08128968626260757
1412183554.7085695,20.0,-0.03941595181822777,-0.011718256399035454,-0.020240623503923416,972883.0,558506910.0,1412183556.0,0.5493600368499756,0.5886000394821167,10.359360694885254,0.06096726655960083,0.7671714425086975,-0.08255983889102936
1412183554.7185516,20.0,-0.038350656628608704,-0.012783551588654518,-0.020240623503923416,972884.0,568471183.0,1412183556.0,0.6278400421142578,1.05948007106781,10.516321182250977,0.07430385053157806,0.7563751339912415,-0.08319491147994995
1412183554.728564,20.0,-0.03728536143898964,-0.011718256399035454,-0.02130592055618763,972886.0,588287627.0,1412183556.0,0.6670800447463989,1.2164400815963745,11.104920387268066,0.0711284726858139,0.7716169357299805,-0.08255983889102936
1412183554.7385447,20.0,-0.038350656628608704,-0.012783551588654518,-0.020240623503923416,972887.0,598421950.0,1412183556.0,0.8240400552749634,0.7848000526428223,10.398600578308105,0.06541279703378677,0.7563751339912415,-0.08001953363418579
1412183554.748613,20.0,-0.03728536143898964,-0.011718256399035454,-0.019175328314304352,972889.0,618380648.0,1412183556.0,0.6278400421142578,0.5886000394821167,10.28088092803955,0.07557400315999985,0.7722520232200623,-0.08128968626260757
1412183554.7587621,20.0,-0.03941595181822777,-0.012783551588654518,-0.020240623503923416,972890.0,628333696.0,1412183556.0,0.6670800447463989,1.020240068435669,10.751760482788086,0.0717635527253151,0.772887110710144,-0.08065461367368698
1412183554.7686803,20.0,-0.038350656628608704,-0.011718256399035454,-0.020240623503923416,972892.0,648187689.0,1412183556.0,0.43164002895355225,1.5303601026535034,10.791000366210938,0.0628724917769432,0.7646310925483704,-0.0793844610452652
1412183554.7785964,20.0,-0.038350656628608704,-0.010652960278093815,-0.020240623503923416,972893.0,658214551.0,1412183556.0,0.3139200210571289,0.9810000658035278,10.516321182250977,0.0628724917769432,0.7646310925483704,-0.0793844610452652
1412183554.7885818,20.0,-0.03728536143898964,-0.011718256399035454,-0.020240623503923416,972894.0,668478616.0,1412183556.0,0.5886000394821167,1.2556800842285156,10.751760482788086,0.06922324746847153,0.7639960646629333,-0.08319491147994995
1412183554.7985137,20.0,-0.03728536143898964,-0.012783551588654518,-0.019175328314304352,972896.0,688378700.0,1412183556.0,0.6670800447463989,0.35316002368927,10.398600578308105,0.06604786962270737,0.7665363550186157,-0.08128968626260757
1412183554.808594,20.0,-0.038350656628608704,-0.012783551588654518,-0.020240623503923416,972897.0,698454464.0,1412183556.0,1.020240068435669,0.6278400421142578,10.437840461730957,0.07493893057107925,0.7709818482398987,-0.08128968626260757
1412183554.8184314,20.0,-0.038350656628608704,-0.011718256399035454,-0.02130592055618763,972899.0,718554615.0,1412183556.0,0.7848000526428223,0.43164002895355225,10.477080345153809,0.07747923582792282,0.7595505118370056,-0.08192475885152817
1412183554.8286788,20.0,-0.038350656628608704,-0.012783551588654518,-0.019175328314304352,972900.0,728134638.0,1412183556.0,1.05948007106781,0.7848000526428223,10.477080345153809,0.07239862531423569,0.7665363550186157,-0.08065461367368698
1412183554.8387587,20.0,-0.038350656628608704,-0.011718256399035454,-0.020240623503923416,972902.0,748433520.0,1412183556.0,0.8632800579071045,0.7455600500106812,10.28088092803955,0.0711284726858139,0.7690766453742981,-0.08255983889102936
1412183554.848534,20.0,-0.038350656628608704,-0.011718256399035454,-0.020240623503923416,972903.0,758452619.0,1412183556.0,1.3341600894927979,0.70632004737854,10.16316032409668,0.07303370535373688,0.7659012675285339,-0.08510013669729233
1412183554.858727,20.0,-0.038350656628608704,-0.012783551588654518,-0.019175328314304352,972905.0,778546619.0,1412183556.0,0.6670800447463989,0.5886000394821167,10.359360694885254,0.0711284726858139,0.7659012675285339,-0.08065461367368698
1412183554.8686507,20.0,-0.036220062524080276,-0.011718256399035454,-0.019175328314304352,972906.0,788269339.0,1412183556.0,1.2949200868606567,0.5886000394821167,10.202400207519531,0.0711284726858139,0.7659012675285339,-0.08065461367368698
1412183554.8786845,20.0,-0.03728536143898964,-0.011718256399035454,-0.02130592055618763,972908.0,808424421.0,1412183556.0,1.1379600763320923,1.41264009475708,10.28088092803955,0.059062037616968155,0.7709818482398987,-0.08382999151945114
1412183554.888518,20.0,-0.038350656628608704,-0.011718256399035454,-0.02130592055618763,972909.0,818634295.0,1412183556.0,0.6278400421142578,1.4911201000213623,10.59480094909668,0.06922324746847153,0.7722520232200623,-0.0793844610452652
1412183554.8987303,20.0,-0.038350656628608704,-0.012783551588654518,-0.02130592055618763,972910.0,828258617.0,1412183556.0,0.3139200210571289,0.9417600631713867,10.751760482788086,0.06922324746847153,0.7722520232200623,-0.0793844610452652
1412183554.9084692,20.0,-0.038350656628608704,-0.011718256399035454,-0.020240623503923416,972912.0,848390351.0,1412183556.0,0.2746800184249878,0.9417600631713867,10.791000366210938,0.0635075643658638,0.7608206868171692,-0.08255983889102936
1412183554.918516,20.0,-0.038350656628608704,-0.011718256399035454,-0.02130592055618763,972913.0,858344846.0,1412183556.0,0.7455600500106812,0.9025200605392456,10.555561065673828,0.07366877794265747,0.7595505118370056,-0.08382999151945114
1412183554.9284182,20.0,-0.038350656628608704,-0.012783551588654518,-0.019175328314304352,972915.0,878242986.0,1412183556.0,0.8632800579071045,1.020240068435669,10.398600578308105,0.07811430841684341,0.7703468203544617,-0.08001953363418579
1412183554.9387615,20.0,-0.038350656628608704,-0.011718256399035454,-0.019175328314304352,972916.0,888571365.0,1412183556.0,0.5886000394821167,0.7848000526428223,10.398600578308105,0.0717635527253151,0.7595505118370056,-0.08255983889102936
1412183554.9488716,20.0,-0.038350656628608704,-0.012783551588654518,-0.019175328314304352,972918.0,908060515.0,1412183556.0,0.47088003158569336,1.020240068435669,10.477080345153809,0.07430385053157806,0.7760624885559082,-0.08255983889102936
1412183554.9584618,20.0,-0.038350656628608704,-0.012783551588654518,-0.02130592055618763,972919.0,918421775.0,1412183556.0,0.9810000658035278,1.020240068435669,11.026440620422363,0.07430385053157806,0.7760624885559082,-0.08255983889102936
1412183554.9684358,20.0,-0.03941595181822777,-0.012783551588654518,-0.020240623503923416,972920.0,928338148.0,1412183556.0,0.5886000394821167,1.0987200736999512,10.006200790405273,0.06668294221162796,0.7595505118370056,-0.08065461367368698
1412183554.9786196,20.0,-0.038350656628608704,-0.011718256399035454,-0.020240623503923416,972922.0,948355566.0,1412183556.0,0.8632800579071045,0.6670800447463989,10.477080345153809,0.0635075643658638,0.7716169357299805,-0.07684415578842163
1412183554.9885292,20.0,-0.03728536143898964,-0.011718256399035454,-0.02130592055618763,972923.0,958301021.0,1412183556.0,1.2556800842285156,0.6278400421142578,10.202400207519531,0.0635075643658638,0.7716169357299805,-0.07684415578842163
1412183554.9987786,20.0,-0.038350656628608704,-0.011718256399035454,-0.020240623503923416,972925.0,978340670.0,1412183556.0,0.9025200605392456,0.39240002632141113,10.202400207519531,0.06668294221162796,0.7608206868171692,-0.08128968626260757
1412183555.008725,20.0,-0.03728536143898964,-0.012783551588654518,-0.020240623503923416,972926.0,988255944.0,1412183556.0,1.0987200736999512,0.70632004737854,10.359360694885254,0.06985832750797272,0.7595505118370056,-0.08255983889102936
1412183555.0184703,20.0,-0.038350656628608704,-0.010652960278093815,-0.020240623503923416,972928.0,8421437.0,1412183557.0,0.9025200605392456,1.05948007106781,10.359360694885254,0.07239862531423569,0.7646310925483704,-0.08255983889102936
1412183555.0284095,20.0,-0.038350656628608704,-0.011718256399035454,-0.020240623503923416,972929.0,18250775.0,1412183557.0,1.020240068435669,0.7455600500106812,10.516321182250977,0.06604786962270737,0.7608206868171692,-0.07747923582792282
1412183555.038773,20.0,-0.03728536143898964,-0.011718256399035454,-0.019175328314304352,972931.0,38456794.0,1412183557.0,0.9417600631713867,1.0987200736999512,10.202400207519531,0.06922324746847153,0.7709818482398987,-0.08382999151945114
1412183555.0486887,20.0,-0.03728536143898964,-0.011718256399035454,-0.020240623503923416,972932.0,48372512.0,1412183557.0,0.6278400421142578,1.2164400815963745,10.791000366210938,0.07303370535373688,0.7512944936752319,-0.08065461367368698
1412183555.0584972,20.0,-0.03728536143898964,-0.010652960278093815,-0.02130592055618763,972933.0,58421771.0,1412183557.0,1.2164400815963745,0.3139200210571289,10.123920440673828,0.06668294221162796,0.7716169357299805,-0.08128968626260757
1412183555.068491,20.0,-0.038350656628608704,-0.012783551588654518,-0.020240623503923416,972935.0,78341268.0,1412183557.0,0.6670800447463989,0.5101200342178345,10.2416410446167,0.06731802225112915,0.7608206868171692,-0.0793844610452652
1412183555.078408,20.0,-0.038350656628608704,-0.012783551588654518,-0.020240623503923416,972936.0,88435593.0,1412183557.0,0.9025200605392456,0.8632800579071045,9.966960906982422,0.06985832750797272,0.7614557147026062,-0.08065461367368698
1412183555.088723,20.0,-0.03728536143898964,-0.013848847709596157,-0.020240623503923416,972938.0,108404218.0,1412183557.0,0.5886000394821167,0.5493600368499756,10.555561065673828,0.0711284726858139,0.7659012675285339,-0.08255983889102936
1412183555.0983858,20.0,-0.03728536143898964,-0.013848847709596157,-0.020240623503923416,972939.0,118431806.0,1412183557.0,0.3139200210571289,1.2949200868606567,10.2416410446167,0.0711284726858139,0.7570102214813232,-0.08128968626260757
1412183555.1082838,20.0,-0.03941595181822777,-0.013848847709596157,-0.019175328314304352,972941.0,138413942.0,1412183557.0,0.43164002895355225,0.9810000658035278,10.751760482788086,0.06731802225112915,0.7709818482398987,-0.08128968626260757
1412183555.11862,20.0,-0.038350656628608704,-0.014914143830537796,-0.02130592055618763,972942.0,148355101.0,1412183557.0,0.6670800447463989,1.0987200736999512,10.398600578308105,0.06414264440536499,0.7563751339912415,-0.08382999151945114
1412183555.1285977,20.0,-0.038350656628608704,-0.011718256399035454,-0.020240623503923416,972944.0,168294355.0,1412183557.0,0.9810000658035278,0.5886000394821167,10.202400207519531,0.06985832750797272,0.7722520232200623,-0.07747923582792282
1412183555.1386046,20.0,-0.038350656628608704,-0.011718256399035454,-0.02130592055618763,972945.0,178434022.0,1412183557.0,0.6278400421142578,0.9025200605392456,10.59480094909668,0.07049340009689331,0.7563751339912415,-0.08001953363418579
1412183555.1485188,20.0,-0.03728536143898964,-0.011718256399035454,-0.020240623503923416,972946.0,188299852.0,1412183557.0,0.39240002632141113,1.2556800842285156,10.791000366210938,0.06096726655960083,0.7671714425086975,-0.08255983889102936
1412183555.1586857,20.0,-0.03728536143898964,-0.011718256399035454,-0.020240623503923416,972948.0,208433852.0,1412183557.0,0.6670800447463989,0.8632800579071045,10.398600578308105,0.07049340009689331,0.7608206868171692,-0.08001953363418579
1412183555.1684253,20.0,-0.038350656628608704,-0.011718256399035454,-0.020240623503923416,972949.0,218240520.0,1412183557.0,0.8632800579071045,0.6670800447463989,10.16316032409668,0.06985832750797272,0.7722520232200623,-0.0793844610452652
1412183555.178558,20.0,-0.038350656628608704,-0.012783551588654518,-0.020240623503923416,972951.0,238508813.0,1412183557.0,0.9025200605392456,0.5493600368499756,10.555561065673828,0.06604786962270737,0.7563751339912415,-0.08192475885152817
1412183555.1886253,20.0,-0.03728536143898964,-0.011718256399035454,-0.020240623503923416,972952.0,248642623.0,1412183557.0,0.70632004737854,0.9417600631713867,10.712520599365234,0.06604786962270737,0.7563751339912415,-0.08192475885152817
1412183555.1986213,20.0,-0.03728536143898964,-0.011718256399035454,-0.020240623503923416,972954.0,268312592.0,1412183557.0,0.70632004737854,0.5493600368499756,10.320120811462402,0.06795309484004974,0.7512944936752319,-0.08128968626260757
1412183555.2083528,20.0,-0.038350656628608704,-0.011718256399035454,-0.02130592055618763,972955.0,278478878.0,1412183557.0,1.020240068435669,0.5493600368499756,10.59480094909668,0.07049340009689331,0.7608206868171692,-0.08192475885152817
1412183555.218715,20.0,-0.038350656628608704,-0.012783551588654518,-0.019175328314304352,972957.0,298243415.0,1412183557.0,0.7848000526428223,0.8240400552749634,10.712520599365234,0.06795309484004974,0.7874938249588013,-0.08065461367368698
1412183555.228551,20.0,-0.038350656628608704,-0.012783551588654518,-0.020240623503923416,972958.0,308395325.0,1412183557.0,0.5493600368499756,0.9417600631713867,11.222640991210938,0.07430385053157806,0.7665363550186157,-0.08001953363418579
1412183555.2386603,20.0,-0.038350656628608704,-0.012783551588654518,-0.020240623503923416,972960.0,328285498.0,1412183557.0,0.5886000394821167,0.9810000658035278,10.634040832519531,0.06922324746847153,0.758280336856842,-0.0793844610452652
1412183555.248394,20.0,-0.03941595181822777,-0.011718256399035454,-0.020240623503923416,972961.0,338538733.0,1412183557.0,0.7455600500106812,0.9025200605392456,10.359360694885254,0.06922324746847153,0.758280336856842,-0.0793844610452652
1412183555.2586575,20.0,-0.038350656628608704,-0.011718256399035454,-0.02130592055618763,972962.0,348545296.0,1412183557.0,0.6670800447463989,1.0987200736999512,10.830240249633789,0.0711284726858139,0.7722520232200623,-0.07366877794265747
1412183555.26865,20.0,-0.038350656628608704,-0.012783551588654518,-0.02130592055618763,972964.0,368343664.0,1412183557.0,0.70632004737854,0.6670800447463989,10.516321182250977,0.0635075643658638,0.7716169357299805,-0.07811430841684341
1412183555.2788389,20.0,-0.03728536143898964,-0.012783551588654518,-0.019175328314304352,972965.0,378476242.0,1412183557.0,0.5493600368499756,0.8632800579071045,10.555561065673828,0.0635075643658638,0.7716169357299805,-0.07811430841684341
1412183555.2889576,20.0,-0.03728536143898964,-0.011718256399035454,-0.020240623503923416,972967.0,398510253.0,1412183557.0,0.9810000658035278,0.9025200605392456,10.477080345153809,0.06795309484004974,0.762090802192688,-0.08001953363418579
1412183555.298639,20.0,-0.038350656628608704,-0.011718256399035454,-0.02130592055618763,972968.0,408645591.0,1412183557.0,1.05948007106781,0.9417600631713867,10.202400207519531,0.06985832750797272,0.7665363550186157,-0.08128968626260757
1412183555.308656,20.0,-0.038350656628608704,-0.012783551588654518,-0.020240623503923416,972970.0,428410285.0,1412183557.0,0.5886000394821167,0.9025200605392456,10.59480094909668,0.0717635527253151,0.7665363550186157,-0.08446506410837173
1412183555.3186646,20.0,-0.038350656628608704,-0.012783551588654518,-0.02130592055618763,972971.0,438264222.0,1412183557.0,0.5101200342178345,0.8632800579071045,10.320120811462402,0.07049340009689331,0.7563751339912415,-0.0793844610452652
1412183555.3285482,20.0,-0.03941595181822777,-0.012783551588654518,-0.020240623503923416,972973.0,458252422.0,1412183557.0,1.05948007106781,0.9810000658035278,10.398600578308105,0.07366877794265747,0.7608206868171692,-0.08255983889102936
1412183555.338767,20.0,-0.038350656628608704,-0.012783551588654518,-0.020240623503923416,972974.0,468224604.0,1412183557.0,0.47088003158569336,0.47088003158569336,10.28088092803955,0.07366877794265747,0.7614557147026062,-0.08255983889102936
1412183555.348578,20.0,-0.038350656628608704,-0.013848847709596157,-0.020240623503923416,972975.0,478507989.0,1412183557.0,0.2746800184249878,0.3139200210571289,10.123920440673828,0.07684415578842163,0.7614557147026062,-0.07747923582792282
1412183555.358468,20.0,-0.03941595181822777,-0.011718256399035454,-0.020240623503923416,972977.0,498533801.0,1412183557.0,0.11772000789642334,0.8632800579071045,10.908720970153809,0.06795309484004974,0.7659012675285339,-0.07874938100576401
1412183555.3683646,20.0,-0.03941595181822777,-0.011718256399035454,-0.020240623503923416,972978.0,508347244.0,1412183557.0,0.47088003158569336,1.1379600763320923,10.830240249633789,0.06985832750797272,0.7709818482398987,-0.08382999151945114
1412183555.3783574,20.0,-0.03941595181822777,-0.011718256399035454,-0.020240623503923416,972980.0,528479706.0,1412183557.0,0.43164002895355225,1.020240068435669,10.987200736999512,0.0717635527253151,0.7512944936752319,-0.0793844610452652
1412183555.388414,20.0,-0.03941595181822777,-0.013848847709596157,-0.020240623503923416,972981.0,538432761.0,1412183557.0,1.020240068435669,0.6278400421142578,10.555561065673828,0.06668294221162796,0.777332603931427,-0.08065461367368698
1412183555.3987203,20.0,-0.038350656628608704,-0.012783551588654518,-0.02130592055618763,972983.0,558291424.0,1412183557.0,1.1379600763320923,0.70632004737854,10.2416410446167,0.07430385053157806,0.7690766453742981,-0.07620908319950104
1412183555.4086983,20.0,-0.038350656628608704,-0.011718256399035454,-0.02130592055618763,972984.0,568362637.0,1412183557.0,0.5101200342178345,0.7848000526428223,10.437840461730957,0.07493893057107925,0.7671714425086975,-0.07493893057107925
1412183555.4185784,20.0,-0.038350656628608704,-0.011718256399035454,-0.020240623503923416,972986.0,588425284.0,1412183557.0,0.9417600631713867,0.5493600368499756,10.28088092803955,0.07239862531423569,0.7595505118370056,-0.08001953363418579
1412183555.4286008,20.0,-0.038350656628608704,-0.011718256399035454,-0.02130592055618763,972987.0,598389301.0,1412183557.0,0.5886000394821167,0.6278400421142578,10.123920440673828,0.07620908319950104,0.7678064703941345,-0.08255983889102936
1412183555.4388318,20.0,-0.03728536143898964,-0.011718256399035454,-0.020240623503923416,972988.0,608386790.0,1412183557.0,0.6670800447463989,0.9417600631713867,11.026440620422363,0.06414264440536499,0.758280336856842,-0.0793844610452652
1412183555.4486604,20.0,-0.038350656628608704,-0.011718256399035454,-0.022371215745806694,972990.0,628308530.0,1412183557.0,0.7848000526428223,0.6670800447463989,10.320120811462402,0.06858817487955093,0.7722520232200623,-0.0793844610452652
1412183555.458339,20.0,-0.038350656628608704,-0.012783551588654518,-0.02130592055618763,972991.0,638435357.0,1412183557.0,0.23544001579284668,1.2949200868606567,10.987200736999512,0.06604786962270737,0.7722520232200623,-0.08128968626260757
1412183555.4685905,20.0,-0.038350656628608704,-0.012783551588654518,-0.02130592055618763,972993.0,658347135.0,1412183557.0,0.9025200605392456,1.373400092124939,10.359360694885254,0.0711284726858139,0.7570102214813232,-0.07874938100576401
1412183555.4785385,20.0,-0.038350656628608704,-0.011718256399035454,-0.020240623503923416,972994.0,668307235.0,1412183557.0,0.5886000394821167,0.9025200605392456,10.516321182250977,0.0711284726858139,0.7570102214813232,-0.07874938100576401
1412183555.488573,20.0,-0.03728536143898964,-0.011718256399035454,-0.02130592055618763,972996.0,688346091.0,1412183557.0,0.5493600368499756,0.7848000526428223,10.791000366210938,0.07366877794265747,0.7595505118370056,-0.08001953363418579
1412183555.4984956,20.0,-0.038350656628608704,-0.012783551588654518,-0.020240623503923416,972997.0,698621282.0,1412183557.0,1.0987200736999512,1.020240068435669,11.261880874633789,0.06477771699428558,0.7697117328643799,-0.07874938100576401
1412183555.5087974,20.0,-0.03728536143898964,-0.011718256399035454,-0.02130592055618763,972999.0,718382499.0,1412183557.0,0.5493600368499756,1.020240068435669,10.477080345153809,0.06541279703378677,0.7614557147026062,-0.08001953363418579
1412183555.518551,20.0,-0.03941595181822777,-0.012783551588654518,-0.02130592055618763,973000.0,728340657.0,1412183557.0,0.8240400552749634,0.9417600631713867,10.2416410446167,0.07430385053157806,0.7627258896827698,-0.08446506410837173
1412183555.5285056,20.0,-0.038350656628608704,-0.011718256399035454,-0.020240623503923416,973001.0,738522173.0,1412183557.0,0.7455600500106812,0.70632004737854,10.28088092803955,0.07430385053157806,0.7608206868171692,-0.08128968626260757
