,actuators_speed_cmd__data,sensors_imu_data_raw__angular_velocity_x,sensors_imu_data_raw__angular_velocity_y,sensors_imu_data_raw__angular_velocity_z,sensors_imu_data_raw__header_seq,sensors_imu_data_raw__header_stamp_nsecs,sensors_imu_data_raw__header_stamp_secs,sensors_imu_data_raw__linear_acceleration_x,sensors_imu_data_raw__linear_acceleration_y,sensors_imu_data_raw__linear_acceleration_z,sensors_imu_data_raw__magnetometer_x,sensors_imu_data_raw__magnetometer_y,sensors_imu_data_raw__magnetometer_z
1412183403.130157,20.0,-0.043677136301994324,-0.014914143830537796,-0.020240623503923416,957540.0,129729798.0,1412183403.0,0.39240002632141113,1.373400092124939,11.065680503845215,0.2857840657234192,0.6960429549217224,-0.18353687226772308
1412183403.1387,20.0,-0.036220062524080276,-0.010652960278093815,-0.020240623503923416,957541.0,138457405.0,1412183403.0,-0.03924000263214111,0.8240400552749634,10.634040832519531,0.2857840657234192,0.6960429549217224,-0.18353687226772308
1412183403.1489367,20.0,-0.041546545922756195,-0.011718256399035454,-0.020240623503923416,957543.0,158464125.0,1412183403.0,0.35316002368927,0.7848000526428223,10.869481086730957,0.28959450125694275,0.6909623146057129,-0.1892525553703308
1412183403.158697,20.0,-0.038350656628608704,-0.014914143830537796,-0.02130592055618763,957544.0,168611559.0,1412183403.0,0.5493600368499756,1.05948007106781,10.908720970153809,0.28197360038757324,0.6947727799415588,-0.18099656701087952
1412183403.1689281,20.0,-0.03408947214484215,-0.010652960278093815,-0.020240623503923416,957545.0,178587722.0,1412183403.0,0.9417600631713867,0.8240400552749634,10.16316032409668,0.28197360038757324,0.6947727799415588,-0.18099656701087952
1412183403.1788156,20.0,-0.03941595181822777,-0.014914143830537796,-0.02130592055618763,957547.0,198537746.0,1412183403.0,0.3139200210571289,0.7455600500106812,10.398600578308105,0.28832435607910156,0.6909623146057129,-0.18480701744556427
1412183403.1886282,20.0,-0.036220062524080276,-0.010652960278093815,-0.020240623503923416,957548.0,208364375.0,1412183403.0,0.23544001579284668,0.8632800579071045,10.16316032409668,0.29086464643478394,0.6903272867202759,-0.18353687226772308
1412183403.1987674,20.0,-0.038350656628608704,-0.013848847709596157,-0.020240623503923416,957549.0,219058970.0,1412183403.0,0.5493600368499756,0.9810000658035278,10.084680557250977,0.29086464643478394,0.6903272867202759,-0.18353687226772308
1412183403.2085323,20.0,-0.036220062524080276,-0.009587664157152176,-0.019175328314304352,957551.0,238286478.0,1412183403.0,-0.03924000263214111,0.6278400421142578,10.94796085357666,0.29721540212631226,0.7011235356330872,-0.18861746788024902
1412183403.219355,20.0,-0.03728536143898964,-0.011718256399035454,-0.020240623503923416,957552.0,248421917.0,1412183403.0,-0.03924000263214111,0.6670800447463989,10.555561065673828,0.28260868787765503,0.6801660656929016,-0.18353687226772308
1412183403.2285511,20.0,-0.043677136301994324,-0.014914143830537796,-0.020240623503923416,957553.0,258608055.0,1412183403.0,0.6670800447463989,0.6670800447463989,10.28088092803955,0.28260868787765503,0.6801660656929016,-0.18353687226772308
1412183403.2385747,20.0,-0.03408947214484215,-0.010652960278093815,-0.02130592055618763,957555.0,278392350.0,1412183403.0,0.43164002895355225,0.6278400421142578,10.16316032409668,0.29531019926071167,0.6903272867202759,-0.18480701744556427
1412183403.2486072,20.0,-0.041546545922756195,-0.012783551588654518,-0.02130592055618763,957556.0,288528912.0,1412183403.0,0.0,0.7848000526428223,10.006200790405273,0.271812379360199,0.6903272867202759,-0.1822667121887207
1412183403.2588398,20.0,-0.041546545922756195,-0.012783551588654518,-0.018110031262040138,957557.0,298329533.0,1412183403.0,0.23544001579284668,0.9025200605392456,10.398600578308105,0.3022960126399994,0.6903272867202759,-0.18861746788024902
1412183403.268754,20.0,-0.04048124700784683,-0.013848847709596157,-0.02130592055618763,957559.0,318615777.0,1412183403.0,0.15696001052856445,1.0987200736999512,10.477080345153809,0.2845138907432556,0.6833414435386658,-0.18544209003448486
1412183403.278543,20.0,-0.041546545922756195,-0.013848847709596157,-0.020240623503923416,957560.0,328364613.0,1412183403.0,-0.11772000789642334,1.020240068435669,10.555561065673828,0.28070345520973206,0.6909623146057129,-0.18798239529132843
1412183403.2887309,20.0,-0.03408947214484215,-0.010652960278093815,-0.020240623503923416,957561.0,338485168.0,1412183403.0,0.07848000526428223,0.9417600631713867,10.359360694885254,0.29785048961639404,0.6903272867202759,-0.18417194485664368
1412183403.2985234,20.0,-0.043677136301994324,-0.014914143830537796,-0.02130592055618763,957563.0,358410540.0,1412183403.0,-0.35316002368927,1.05948007106781,10.477080345153809,0.2845138907432556,0.7011235356330872,-0.18353687226772308
1412183403.3087487,20.0,-0.038350656628608704,-0.012783551588654518,-0.020240623503923416,957564.0,368522279.0,1412183403.0,0.19620001316070557,0.8240400552749634,10.16316032409668,0.3099169433116913,0.6877869367599487,-0.19179286062717438
1412183403.3188426,20.0,-0.041546545922756195,-0.01597944088280201,-0.02130592055618763,957566.0,388390529.0,1412183403.0,0.39240002632141113,0.43164002895355225,10.2416410446167,0.28324374556541443,0.694137692451477,-0.1816316395998001
1412183403.3285382,20.0,-0.038350656628608704,-0.012783551588654518,-0.020240623503923416,957567.0,398529025.0,1412183403.0,-0.11772000789642334,1.4911201000213623,10.751760482788086,0.28197360038757324,0.6846115589141846,-0.18544209003448486
1412183403.338738,20.0,-0.033024176955223083,-0.008522368036210537,-0.019175328314304352,957568.0,408292464.0,1412183403.0,0.43164002895355225,0.8240400552749634,10.359360694885254,0.2921348214149475,0.6833414435386658,-0.18544209003448486
1412183403.3486936,20.0,-0.041546545922756195,-0.014914143830537796,-0.020240623503923416,957570.0,428368146.0,1412183403.0,0.2746800184249878,0.7455600500106812,10.516321182250977,0.28133851289749146,0.6808010935783386,-0.18036149442195892
1412183403.3586953,20.0,-0.033024176955223083,-0.011718256399035454,-0.020240623503923416,957571.0,438237904.0,1412183403.0,0.47088003158569336,1.0987200736999512,10.006200790405273,0.29658034443855286,0.69350266456604,-0.18353687226772308
1412183403.3688958,20.0,-0.036220062524080276,-0.014914143830537796,-0.020240623503923416,957572.0,448563894.0,1412183403.0,0.7455600500106812,0.5886000394821167,10.398600578308105,0.27498775720596313,0.6903272867202759,-0.18671225011348724
1412183403.3786638,20.0,-0.03408947214484215,-0.012783551588654518,-0.019175328314304352,957574.0,468404430.0,1412183403.0,-0.07848000526428223,0.5493600368499756,10.987200736999512,0.28006836771965027,0.6852466464042664,-0.18544209003448486
1412183403.3885496,20.0,-0.03515476733446121,-0.012783551588654518,-0.020240623503923416,957575.0,478560753.0,1412183403.0,0.35316002368927,0.7455600500106812,10.712520599365234,0.29785048961639404,0.6928675770759583,-0.18861746788024902
1412183403.3987327,20.0,-0.043677136301994324,-0.017044736072421074,-0.019175328314304352,957576.0,488515040.0,1412183403.0,-0.3139200210571289,1.0987200736999512,10.634040832519531,0.2857840657234192,0.6896921992301941,-0.1892525553703308
1412183403.4085832,20.0,-0.036220062524080276,-0.009587664157152176,-0.019175328314304352,957578.0,508356597.0,1412183403.0,0.6670800447463989,1.5303601026535034,11.144161224365234,0.2845138907432556,0.69350266456604,-0.18798239529132843
1412183403.4185715,20.0,-0.041546545922756195,-0.013848847709596157,-0.019175328314304352,957579.0,518383779.0,1412183403.0,0.11772000789642334,0.9810000658035278,10.477080345153809,0.2845138907432556,0.69350266456604,-0.18798239529132843
1412183403.4285424,20.0,-0.03941595181822777,-0.011718256399035454,-0.02130592055618763,957580.0,528571239.0,1412183403.0,0.5886000394821167,0.7455600500106812,10.320120811462402,0.28324374556541443,0.6896921992301941,-0.18417194485664368
1412183403.4384007,20.0,-0.038350656628608704,-0.012783551588654518,-0.020240623503923416,957582.0,548166840.0,1412183403.0,0.19620001316070557,0.8632800579071045,10.751760482788086,0.28260868787765503,0.6801660656929016,-0.1829017996788025
1412183403.4487224,20.0,-0.04474243149161339,-0.013848847709596157,-0.020240623503923416,957583.0,558502855.0,1412183403.0,0.47088003158569336,0.6278400421142578,10.59480094909668,0.28260868787765503,0.6801660656929016,-0.1829017996788025
1412183403.4587047,20.0,-0.036220062524080276,-0.010652960278093815,-0.02130592055618763,957585.0,578327753.0,1412183403.0,0.70632004737854,0.6278400421142578,10.045440673828125,0.29531019926071167,0.6903272867202759,-0.18544209003448486
1412183403.468656,20.0,-0.04474243149161339,-0.014914143830537796,-0.02130592055618763,957586.0,588653063.0,1412183403.0,0.07848000526428223,1.2164400815963745,10.398600578308105,0.28006836771965027,0.6801660656929016,-0.18544209003448486
1412183403.4787178,20.0,-0.03515476733446121,-0.010652960278093815,-0.020240623503923416,957587.0,598793407.0,1412183403.0,-0.07848000526428223,1.05948007106781,10.673280715942383,0.28006836771965027,0.6801660656929016,-0.18544209003448486
1412183403.4886868,20.0,-0.04261184111237526,-0.013848847709596157,-0.019175328314304352,957589.0,618634455.0,1412183403.0,0.7848000526428223,0.7455600500106812,10.084680557250977,0.2870542109012604,0.6852466464042664,-0.18353687226772308
1412183403.498506,20.0,-0.03941595181822777,-0.011718256399035454,-0.020240623503923416,957590.0,628409841.0,1412183403.0,0.03924000263214111,0.2746800184249878,10.987200736999512,0.3029311001300812,0.69350266456604,-0.18353687226772308
1412183403.5085492,20.0,-0.033024176955223083,-0.010652960278093815,-0.020240623503923416,957591.0,638338435.0,1412183403.0,-0.19620001316070557,0.47088003158569336,10.751760482788086,0.3029311001300812,0.69350266456604,-0.18353687226772308
1412183403.5186145,20.0,-0.04048124700784683,-0.014914143830537796,-0.020240623503923416,957593.0,658484263.0,1412183403.0,0.2746800184249878,1.05948007106781,10.516321182250977,0.28324374556541443,0.6909623146057129,-0.18353687226772308
1412183403.5288658,20.0,-0.03408947214484215,-0.009587664157152176,-0.020240623503923416,957594.0,668623102.0,1412183403.0,0.23544001579284668,1.05948007106781,10.712520599365234,0.29848557710647583,0.7023937106132507,-0.18036149442195892
1412183403.538587,20.0,-0.038350656628608704,-0.012783551588654518,-0.020240623503923416,957595.0,678317883.0,1412183403.0,0.23544001579284668,0.39240002632141113,10.869481086730957,0.29848557710647583,0.7023937106132507,-0.18036149442195892
1412183403.5483363,20.0,-0.03515476733446121,-0.009587664157152176,-0.020240623503923416,957597.0,698418955.0,1412183403.0,0.0,0.9810000658035278,10.751760482788086,0.29721540212631226,0.6915974020957947,-0.1892525553703308
1412183403.558665,20.0,-0.03408947214484215,-0.011718256399035454,-0.020240623503923416,957598.0,708528853.0,1412183403.0,0.11772000789642334,1.3341600894927979,10.202400207519531,0.2857840657234192,0.6858817338943481,-0.190522700548172
1412183403.5688398,20.0,-0.04261184111237526,-0.01597944088280201,-0.020240623503923416,957599.0,718763318.0,1412183403.0,0.43164002895355225,0.6278400421142578,10.045440673828125,0.27371761202812195,0.6909623146057129,-0.17718611657619476
1412183403.578567,20.0,-0.03408947214484215,-0.009587664157152176,-0.019175328314304352,957601.0,738448679.0,1412183403.0,-0.11772000789642334,0.9417600631713867,10.830240249633789,0.2921348214149475,0.6909623146057129,-0.18544209003448486
1412183403.5889196,20.0,-0.041546545922756195,-0.013848847709596157,-0.020240623503923416,957602.0,748367036.0,1412183403.0,0.5886000394821167,0.6278400421142578,10.359360694885254,0.29531019926071167,0.6782608032226562,-0.1829017996788025
1412183403.599104,20.0,-0.03515476733446121,-0.011718256399035454,-0.020240623503923416,957604.0,768646102.0,1412183403.0,0.6278400421142578,0.5886000394821167,9.966960906982422,0.2946751117706299,0.6896921992301941,-0.18417194485664368
1412183403.6083248,20.0,-0.04048124700784683,-0.013848847709596157,-0.022371215745806694,957605.0,778225549.0,1412183403.0,1.0987200736999512,0.5886000394821167,10.359360694885254,0.29086464643478394,0.701758623123169,-0.18417194485664368
1412183403.6188517,20.0,-0.041546545922756195,-0.014914143830537796,-0.02130592055618763,957606.0,788367201.0,1412183403.0,-0.15696001052856445,0.9810000658035278,10.202400207519531,0.27435269951820374,0.6865168213844299,-0.18544209003448486
1412183403.628627,20.0,-0.036220062524080276,-0.010652960278093815,-0.019175328314304352,957608.0,808338177.0,1412183403.0,1.0987200736999512,0.7455600500106812,10.2416410446167,0.2940400242805481,0.6909623146057129,-0.1892525553703308
1412183403.6385393,20.0,-0.04261184111237526,-0.013848847709596157,-0.02130592055618763,957609.0,818605451.0,1412183403.0,-0.11772000789642334,0.5886000394821167,10.398600578308105,0.29022958874702454,0.6903272867202759,-0.18353687226772308
1412183403.648691,20.0,-0.03941595181822777,-0.010652960278093815,-0.019175328314304352,957610.0,828205684.0,1412183403.0,1.020240068435669,0.6278400421142578,10.16316032409668,0.2864191234111786,0.6884220242500305,-0.190522700548172
1412183403.658702,20.0,-0.04261184111237526,-0.01597944088280201,-0.022371215745806694,957612.0,848571476.0,1412183403.0,-0.3139200210571289,1.2949200868606567,10.908720970153809,0.29912063479423523,0.6846115589141846,-0.190522700548172
1412183403.668885,20.0,-0.03941595181822777,-0.011718256399035454,-0.020240623503923416,957613.0,858696584.0,1412183403.0,0.11772000789642334,1.1772000789642334,10.751760482788086,0.28133851289749146,0.682706356048584,-0.18861746788024902
1412183403.678523,20.0,-0.03408947214484215,-0.007457071915268898,-0.020240623503923416,957614.0,868705321.0,1412183403.0,0.5886000394821167,0.9417600631713867,10.712520599365234,0.30674153566360474,0.6903272867202759,-0.18671225011348724
1412183403.6882753,20.0,-0.041546545922756195,-0.014914143830537796,-0.022371215745806694,957616.0,888368863.0,1412183403.0,0.03924000263214111,0.6278400421142578,10.712520599365234,0.28197360038757324,0.6947727799415588,-0.1829017996788025
1412183403.6986432,20.0,-0.036220062524080276,-0.008522368036210537,-0.019175328314304352,957617.0,898493987.0,1412183403.0,0.5493600368499756,1.3341600894927979,10.516321182250977,0.29594525694847107,0.7004884481430054,-0.1829017996788025
1412183403.708734,20.0,-0.038350656628608704,-0.011718256399035454,-0.020240623503923416,957618.0,908711975.0,1412183403.0,0.3139200210571289,1.05948007106781,10.16316032409668,0.29848557710647583,0.6833414435386658,-0.1829017996788025
1412183403.718928,20.0,-0.03515476733446121,-0.010652960278093815,-0.019175328314304352,957620.0,928350305.0,1412183403.0,0.07848000526428223,0.9025200605392456,10.712520599365234,0.2845138907432556,0.6801660656929016,-0.18353687226772308
1412183403.7286181,20.0,-0.036220062524080276,-0.010652960278093815,-0.02130592055618763,957621.0,938478574.0,1412183403.0,0.5493600368499756,0.47088003158569336,10.16316032409668,0.30166095495224,0.7011235356330872,-0.18544209003448486
1412183403.7387073,20.0,-0.041546545922756195,-0.014914143830537796,-0.020240623503923416,957622.0,948398389.0,1412183403.0,0.23544001579284668,0.8240400552749634,10.359360694885254,0.29594525694847107,0.7011235356330872,-0.1829017996788025
1412183403.7486084,20.0,-0.03515476733446121,-0.009587664157152176,-0.02130592055618763,957624.0,968348745.0,1412183403.0,0.07848000526428223,0.47088003158569336,10.202400207519531,0.29086464643478394,0.6960429549217224,-0.1911577731370926
1412183403.7588084,20.0,-0.04048124700784683,-0.013848847709596157,-0.02130592055618763,957625.0,978420246.0,1412183403.0,0.07848000526428223,0.8632800579071045,10.320120811462402,0.29086464643478394,0.6960429549217224,-0.1911577731370926
1412183403.7688696,20.0,-0.03408947214484215,-0.010652960278093815,-0.020240623503923416,957627.0,998614581.0,1412183403.0,-0.03924000263214111,1.0987200736999512,11.340360641479492,0.2876892685890198,0.6922324895858765,-0.18544209003448486
1412183403.7786784,20.0,-0.03941595181822777,-0.012783551588654518,-0.019175328314304352,957628.0,8141798.0,1412183404.0,0.11772000789642334,1.020240068435669,10.320120811462402,0.3035661578178406,0.6922324895858765,-0.18671225011348724
1412183403.7885695,20.0,-0.04261184111237526,-0.01597944088280201,-0.02130592055618763,957629.0,18519064.0,1412183404.0,0.5101200342178345,0.7848000526428223,10.59480094909668,0.3035661578178406,0.6922324895858765,-0.18671225011348724
1412183403.7985663,20.0,-0.036220062524080276,-0.011718256399035454,-0.019175328314304352,957631.0,38051379.0,1412183404.0,0.07848000526428223,1.1772000789642334,10.477080345153809,0.29022958874702454,0.6852466464042664,-0.18480701744556427
1412183403.808674,20.0,-0.04261184111237526,-0.014914143830537796,-0.02130592055618763,957632.0,48484372.0,1412183404.0,-0.15696001052856445,1.0987200736999512,10.437840461730957,0.2845138907432556,0.6858817338943481,-0.1822667121887207
1412183403.8188396,20.0,-0.03941595181822777,-0.011718256399035454,-0.020240623503923416,957633.0,58363393.0,1412183404.0,-0.19620001316070557,1.2556800842285156,10.477080345153809,0.2845138907432556,0.6858817338943481,-0.1822667121887207
1412183403.8284416,20.0,-0.043677136301994324,-0.013848847709596157,-0.020240623503923416,957635.0,78375534.0,1412183404.0,0.3139200210571289,0.8632800579071045,10.320120811462402,0.27943331003189087,0.6903272867202759,-0.1892525553703308
1412183403.8386707,20.0,-0.04048124700784683,-0.012783551588654518,-0.019175328314304352,957636.0,88494856.0,1412183404.0,0.5101200342178345,0.8632800579071045,11.026440620422363,0.2845138907432556,0.6769906878471375,-0.18353687226772308
1412183403.8488398,20.0,-0.033024176955223083,-0.009587664157152176,-0.019175328314304352,957637.0,98719169.0,1412183404.0,0.07848000526428223,1.0987200736999512,10.437840461730957,0.2845138907432556,0.6769906878471375,-0.18353687226772308
1412183403.858936,20.0,-0.04261184111237526,-0.012783551588654518,-0.020240623503923416,957639.0,118589564.0,1412183404.0,-0.2746800184249878,1.020240068435669,10.2416410446167,0.2857840657234192,0.6884220242500305,-0.1816316395998001
1412183403.8689232,20.0,-0.03515476733446121,-0.009587664157152176,-0.019175328314304352,957640.0,128356762.0,1412183404.0,0.2746800184249878,1.2164400815963745,9.692280769348145,0.2851489782333374,0.6922324895858765,-0.1829017996788025
1412183403.8787506,20.0,-0.038350656628608704,-0.011718256399035454,-0.020240623503923416,957641.0,138822557.0,1412183404.0,0.07848000526428223,0.39240002632141113,11.30112075805664,0.2851489782333374,0.6922324895858765,-0.1829017996788025
1412183403.8885856,20.0,-0.036220062524080276,-0.012783551588654518,-0.019175328314304352,957643.0,158773621.0,1412183404.0,0.11772000789642334,1.1379600763320923,10.045440673828125,0.28006836771965027,0.6877869367599487,-0.18417194485664368
1412183403.8987463,20.0,-0.03515476733446121,-0.009587664157152176,-0.020240623503923416,957644.0,168541574.0,1412183404.0,0.5886000394821167,0.9810000658035278,10.320120811462402,0.2870542109012604,0.6871519088745117,-0.18798239529132843
1412183403.9088964,20.0,-0.038350656628608704,-0.012783551588654518,-0.02130592055618763,957646.0,188770749.0,1412183404.0,0.6278400421142578,0.70632004737854,10.712520599365234,0.2946751117706299,0.6903272867202759,-0.18353687226772308
1412183403.9187224,20.0,-0.03408947214484215,-0.010652960278093815,-0.019175328314304352,957647.0,198559616.0,1412183404.0,1.0987200736999512,0.47088003158569336,10.2416410446167,0.2927698791027069,0.6852466464042664,-0.18036149442195892
1412183403.928521,20.0,-0.041546545922756195,-0.013848847709596157,-0.020240623503923416,957648.0,208312079.0,1412183404.0,0.8240400552749634,0.47088003158569336,11.340360641479492,0.2934049665927887,0.7074742913246155,-0.18036149442195892
1412183403.9386532,20.0,-0.033024176955223083,-0.013848847709596157,-0.020240623503923416,957650.0,228417233.0,1412183404.0,0.5101200342178345,0.5886000394821167,10.16316032409668,0.28260868787765503,0.6852466464042664,-0.18671225011348724
1412183403.9485614,20.0,-0.03728536143898964,-0.012783551588654518,-0.020240623503923416,957651.0,238190127.0,1412183404.0,0.07848000526428223,0.47088003158569336,11.026440620422363,0.29785048961639404,0.6903272867202759,-0.18671225011348724
1412183403.95866,20.0,-0.04474243149161339,-0.013848847709596157,-0.020240623503923416,957652.0,248460043.0,1412183404.0,0.11772000789642334,0.6670800447463989,10.16316032409668,0.29721540212631226,0.6909623146057129,-0.18861746788024902
1412183403.9685504,20.0,-0.036220062524080276,-0.011718256399035454,-0.020240623503923416,957654.0,268278764.0,1412183404.0,0.6278400421142578,0.23544001579284668,10.202400207519531,0.2927698791027069,0.6903272867202759,-0.17972642183303833
1412183403.978664,20.0,-0.041546545922756195,-0.014914143830537796,-0.02130592055618763,957655.0,278342435.0,1412183404.0,0.47088003158569336,0.9810000658035278,10.320120811462402,0.29785048961639404,0.6922324895858765,-0.18671225011348724
1412183403.9887798,20.0,-0.03728536143898964,-0.013848847709596157,-0.019175328314304352,957656.0,288352261.0,1412183404.0,0.6278400421142578,0.19620001316070557,10.673280715942383,0.2851489782333374,0.6896921992301941,-0.18417194485664368
1412183403.9988358,20.0,-0.03941595181822777,-0.013848847709596157,-0.020240623503923416,957658.0,308496064.0,1412183404.0,0.2746800184249878,0.8240400552749634,10.045440673828125,0.2940400242805481,0.6852466464042664,-0.1892525553703308
1412183404.0083153,20.0,-0.04048124700784683,-0.013848847709596157,-0.020240623503923416,957659.0,318472899.0,1412183404.0,0.3139200210571289,0.8240400552749634,10.555561065673828,0.2914997339248657,0.6903272867202759,-0.18353687226772308
1412183404.0187626,20.0,-0.033024176955223083,-0.011718256399035454,-0.020240623503923416,957660.0,328420281.0,1412183404.0,0.6278400421142578,0.9417600631713867,10.987200736999512,0.28832435607910156,0.6903272867202759,-0.18417194485664368
1412183404.0285604,20.0,-0.041546545922756195,-0.013848847709596157,-0.020240623503923416,957662.0,348445120.0,1412183404.0,0.23544001579284668,0.3139200210571289,10.987200736999512,0.29022958874702454,0.6928675770759583,-0.18798239529132843
1412183404.0382314,20.0,-0.03515476733446121,-0.009587664157152176,-0.020240623503923416,957663.0,358490968.0,1412183404.0,0.5886000394821167,1.4911201000213623,10.59480094909668,0.28324374556541443,0.6858817338943481,-0.18480701744556427
1412183404.0487223,20.0,-0.036220062524080276,-0.009587664157152176,-0.020240623503923416,957664.0,368418741.0,1412183404.0,0.23544001579284668,1.2164400815963745,10.437840461730957,0.2787982225418091,0.6814361810684204,-0.18671225011348724
1412183404.0585494,20.0,-0.03941595181822777,-0.009587664157152176,-0.020240623503923416,957666.0,388580826.0,1412183404.0,0.6670800447463989,0.8632800579071045,10.16316032409668,0.29785048961639404,0.6903272867202759,-0.18417194485664368
1412183404.0683994,20.0,-0.03515476733446121,-0.010652960278093815,-0.020240623503923416,957667.0,398393189.0,1412183404.0,-0.35316002368927,1.2949200868606567,10.751760482788086,0.2845138907432556,0.6909623146057129,-0.18353687226772308
1412183404.0785644,20.0,-0.03941595181822777,-0.01597944088280201,-0.019175328314304352,957669.0,418602152.0,1412183404.0,0.47088003158569336,0.5493600368499756,10.94796085357666,0.2940400242805481,0.6801660656929016,-0.18861746788024902
1412183404.0886817,20.0,-0.030893584713339806,-0.006391775794327259,-0.019175328314304352,957670.0,428410780.0,1412183404.0,-0.03924000263214111,0.70632004737854,9.966960906982422,0.2851489782333374,0.6852466464042664,-0.18798239529132843
1412183404.0988877,20.0,-0.038350656628608704,-0.017044736072421074,-0.020240623503923416,957671.0,438388731.0,1412183404.0,0.07848000526428223,0.47088003158569336,10.712520599365234,0.2851489782333374,0.6852466464042664,-0.18798239529132843
1412183404.1085746,20.0,-0.03515476733446121,-0.009587664157152176,-0.02130592055618763,957673.0,458395235.0,1412183404.0,0.07848000526428223,0.5886000394821167,10.28088092803955,0.28197360038757324,0.6909623146057129,-0.1829017996788025
1412183404.1188104,20.0,-0.03728536143898964,-0.014914143830537796,-0.019175328314304352,957674.0,468317941.0,1412183404.0,1.0987200736999512,0.6670800447463989,10.16316032409668,0.29594525694847107,0.6960429549217224,-0.1892525553703308
1412183404.12855,20.0,-0.04261184111237526,-0.01597944088280201,-0.018110031262040138,957675.0,478535846.0,1412183404.0,0.07848000526428223,0.7455600500106812,10.045440673828125,0.29594525694847107,0.6960429549217224,-0.1892525553703308
1412183404.1389885,20.0,-0.03408947214484215,-0.012783551588654518,-0.019175328314304352,957677.0,498196082.0,1412183404.0,0.6278400421142578,0.3139200210571289,10.084680557250977,0.2781631350517273,0.6909623146057129,-0.1829017996788025
1412183404.1485193,20.0,-0.04261184111237526,-0.013848847709596157,-0.020240623503923416,957678.0,508624880.0,1412183404.0,0.2746800184249878,1.1772000789642334,10.634040832519531,0.2876892685890198,0.7023937106132507,-0.190522700548172
1412183404.158999,20.0,-0.03941595181822777,-0.011718256399035454,-0.020240623503923416,957679.0,518438529.0,1412183404.0,0.6670800447463989,0.7848000526428223,10.555561065673828,0.2876892685890198,0.7023937106132507,-0.190522700548172
1412183404.1687312,20.0,-0.041546545922756195,-0.014914143830537796,-0.019175328314304352,957681.0,538601867.0,1412183404.0,0.15696001052856445,0.70632004737854,10.673280715942383,0.28832435607910156,0.6903272867202759,-0.18353687226772308
1412183404.178657,20.0,-0.04048124700784683,-0.01597944088280201,-0.02130592055618763,957682.0,548517310.0,1412183404.0,0.07848000526428223,0.39240002632141113,10.123920440673828,0.2946751117706299,0.6928675770759583,-0.18607717752456665
1412183404.188985,20.0,-0.033024176955223083,-0.009587664157152176,-0.020240623503923416,957683.0,558352796.0,1412183404.0,0.43164002895355225,0.9810000658035278,10.16316032409668,0.2946751117706299,0.6928675770759583,-0.18607717752456665
1412183404.1987553,20.0,-0.04048124700784683,-0.014914143830537796,-0.020240623503923416,957685.0,578641059.0,1412183404.0,-0.39240002632141113,1.2164400815963745,10.516321182250977,0.29594525694847107,0.69350266456604,-0.1829017996788025
1412183404.208504,20.0,-0.03515476733446121,-0.011718256399035454,-0.018110031262040138,957686.0,588321940.0,1412183404.0,1.020240068435669,0.35316002368927,9.92772102355957,0.2927698791027069,0.6795309782028198,-0.18353687226772308
1412183404.2190626,20.0,-0.04261184111237526,-0.014914143830537796,-0.02130592055618763,957688.0,608538277.0,1412183404.0,0.0,0.5886000394821167,10.555561065673828,0.2838788330554962,0.6973130702972412,-0.1822667121887207
1412183404.2285988,20.0,-0.036220062524080276,-0.013848847709596157,-0.020240623503923416,957689.0,618285377.0,1412183404.0,-0.03924000263214111,1.1772000789642334,10.59480094909668,0.29658034443855286,0.6973130702972412,-0.18607717752456665
1412183404.238366,20.0,-0.03515476733446121,-0.010652960278093815,-0.02130592055618763,957690.0,628461912.0,1412183404.0,0.35316002368927,0.9417600631713867,10.16316032409668,0.2781631350517273,0.6909623146057129,-0.18734732270240784
1412183404.2487,20.0,-0.03941595181822777,-0.011718256399035454,-0.020240623503923416,957692.0,648434030.0,1412183404.0,0.6278400421142578,0.5886000394821167,10.59480094909668,0.29531019926071167,0.6922324895858765,-0.18861746788024902
1412183404.2586977,20.0,-0.03195888176560402,-0.010652960278093815,-0.02130592055618763,957693.0,658538341.0,1412183404.0,-0.3139200210571289,0.8240400552749634,10.555561065673828,0.29531019926071167,0.6903272867202759,-0.18417194485664368
1412183404.268494,20.0,-0.038350656628608704,-0.012783551588654518,-0.020240623503923416,957694.0,668404221.0,1412183404.0,-0.11772000789642334,0.8632800579071045,11.144161224365234,0.27435269951820374,0.6909623146057129,-0.1822667121887207
1412183404.2785342,20.0,-0.036220062524080276,-0.010652960278093815,-0.020240623503923416,957696.0,688547573.0,1412183404.0,0.2746800184249878,0.5101200342178345,10.673280715942383,0.29022958874702454,0.6985832452774048,-0.18353687226772308
1412183404.2885618,20.0,-0.038350656628608704,-0.011718256399035454,-0.020240623503923416,957697.0,698449505.0,1412183404.0,0.03924000263214111,0.47088003158569336,10.16316032409668,0.2857840657234192,0.6903272867202759,-0.19179286062717438
1412183404.298513,20.0,-0.041546545922756195,-0.014914143830537796,-0.02130592055618763,957698.0,708403795.0,1412183404.0,0.7455600500106812,1.05948007106781,10.751760482788086,0.2845138907432556,0.6884220242500305,-0.1816316395998001
1412183404.3087273,20.0,-0.03728536143898964,-0.013848847709596157,-0.019175328314304352,957700.0,728500360.0,1412183404.0,-0.03924000263214111,0.7455600500106812,9.888481140136719,0.29785048961639404,0.6903272867202759,-0.18099656701087952
1412183404.3187156,20.0,-0.04048124700784683,-0.013848847709596157,-0.02130592055618763,957701.0,738490589.0,1412183404.0,0.5493600368499756,0.5493600368499756,10.477080345153809,0.27943331003189087,0.6954078674316406,-0.17909133434295654
1412183404.3285866,20.0,-0.03941595181822777,-0.012783551588654518,-0.020240623503923416,957702.0,748455228.0,1412183404.0,0.0,1.41264009475708,10.477080345153809,0.3003907799720764,0.6903272867202759,-0.18036149442195892
1412183404.3389428,20.0,-0.03941595181822777,-0.013848847709596157,-0.02130592055618763,957704.0,768472386.0,1412183404.0,-0.19620001316070557,0.6670800447463989,11.065680503845215,0.2914997339248657,0.6795309782028198,-0.1816316395998001
1412183404.3486228,20.0,-0.041546545922756195,-0.012783551588654518,-0.020240623503923416,957705.0,778459102.0,1412183404.0,0.23544001579284668,0.8632800579071045,10.673280715942383,0.2921348214149475,0.6750854253768921,-0.18861746788024902
1412183404.3587098,20.0,-0.036220062524080276,-0.011718256399035454,-0.020240623503923416,957706.0,788346609.0,1412183404.0,0.03924000263214111,1.05948007106781,10.477080345153809,0.29785048961639404,0.6903272867202759,-0.18353687226772308
1412183404.3685937,20.0,-0.041546545922756195,-0.014914143830537796,-0.020240623503923416,957708.0,808445331.0,1412183404.0,-0.15696001052856445,0.9810000658035278,10.751760482788086,0.27498775720596313,0.6909623146057129,-0.18036149442195892
1412183404.3788345,20.0,-0.03515476733446121,-0.012783551588654518,-0.020240623503923416,957709.0,818459889.0,1412183404.0,-0.39240002632141113,0.9025200605392456,10.908720970153809,0.2946751117706299,0.6903272867202759,-0.18417194485664368
1412183404.3888419,20.0,-0.041546545922756195,-0.017044736072421074,-0.019175328314304352,957711.0,838551464.0,1412183404.0,0.03924000263214111,0.8632800579071045,10.084680557250977,0.29022958874702454,0.6896921992301941,-0.18417194485664368
1412183404.3986309,20.0,-0.038350656628608704,-0.014914143830537796,-0.02130592055618763,957712.0,848192555.0,1412183404.0,0.23544001579284668,0.6670800447463989,9.92772102355957,0.29022958874702454,0.6896921992301941,-0.18417194485664368
1412183404.4085257,20.0,-0.033024176955223083,-0.010652960278093815,-0.020240623503923416,957713.0,858482942.0,1412183404.0,0.0,0.7455600500106812,10.791000366210938,0.29785048961639404,0.6903272867202759,-0.18036149442195892
1412183404.4188023,20.0,-0.04048124700784683,-0.012783551588654518,-0.020240623503923416,957715.0,878571142.0,1412183404.0,0.07848000526428223,0.8632800579071045,10.398600578308105,0.2870542109012604,0.6782608032226562,-0.1898876279592514
1412183404.4286513,20.0,-0.03515476733446121,-0.008522368036210537,-0.020240623503923416,957716.0,888357846.0,1412183404.0,-0.19620001316070557,0.6278400421142578,10.398600578308105,0.29022958874702454,0.6801660656929016,-0.18480701744556427
1412183404.438642,20.0,-0.03941595181822777,-0.012783551588654518,-0.02130592055618763,957717.0,898360836.0,1412183404.0,1.1772000789642334,0.6670800447463989,10.28088092803955,0.29022958874702454,0.6801660656929016,-0.18480701744556427
1412183404.448893,20.0,-0.03408947214484215,-0.008522368036210537,-0.019175328314304352,957719.0,918508823.0,1412183404.0,-0.2746800184249878,0.9025200605392456,10.869481086730957,0.2857840657234192,0.69350266456604,-0.18544209003448486
1412183404.4585905,20.0,-0.036220062524080276,-0.011718256399035454,-0.020240623503923416,957720.0,928141055.0,1412183404.0,0.6670800447463989,0.7848000526428223,10.712520599365234,0.28959450125694275,0.6896921992301941,-0.18544209003448486
1412183404.4685624,20.0,-0.04474243149161339,-0.012783551588654518,-0.020240623503923416,957721.0,938652787.0,1412183404.0,0.5493600368499756,1.373400092124939,10.398600578308105,0.28959450125694275,0.6896921992301941,-0.18544209003448486
1412183404.4787748,20.0,-0.03408947214484215,-0.010652960278093815,-0.019175328314304352,957723.0,958240574.0,1412183404.0,0.39240002632141113,0.8632800579071045,10.045440673828125,0.28895944356918335,0.6909623146057129,-0.1829017996788025
1412183404.4887416,20.0,-0.041546545922756195,-0.01597944088280201,-0.020240623503923416,957724.0,968517767.0,1412183404.0,0.07848000526428223,1.0987200736999512,10.673280715942383,0.29022958874702454,0.6801660656929016,-0.18798239529132843
1412183404.4983764,20.0,-0.03728536143898964,-0.010652960278093815,-0.02130592055618763,957725.0,978384210.0,1412183404.0,0.03924000263214111,0.6670800447463989,10.477080345153809,0.29022958874702454,0.6801660656929016,-0.18798239529132843
1412183404.508819,20.0,-0.04048124700784683,-0.013848847709596157,-0.02130592055618763,957727.0,998630085.0,1412183404.0,0.5493600368499756,0.5101200342178345,9.84924030303955,0.28197360038757324,0.6909623146057129,-0.18036149442195892
1412183404.5186799,20.0,-0.043677136301994324,-0.014914143830537796,-0.019175328314304352,957728.0,8608771.0,1412183405.0,0.3139200210571289,1.05948007106781,10.437840461730957,0.2845138907432556,0.6909623146057129,-0.18544209003448486
1412183404.528452,20.0,-0.03515476733446121,-0.011718256399035454,-0.019175328314304352,957729.0,18328544.0,1412183405.0,0.8240400552749634,0.8240400552749634,10.712520599365234,0.2845138907432556,0.6909623146057129,-0.18544209003448486
1412183404.538791,20.0,-0.043677136301994324,-0.014914143830537796,-0.020240623503923416,957731.0,38686027.0,1412183405.0,0.6278400421142578,0.9025200605392456,10.59480094909668,0.27943331003189087,0.69350266456604,-0.18734732270240784
1412183404.5487156,20.0,-0.036220062524080276,-0.012783551588654518,-0.019175328314304352,957732.0,48319167.0,1412183405.0,0.07848000526428223,0.9417600631713867,10.673280715942383,0.3022960126399994,0.69350266456604,-0.1822667121887207
1412183404.558545,20.0,-0.04261184111237526,-0.014914143830537796,-0.022371215745806694,957734.0,68492618.0,1412183405.0,0.03924000263214111,0.9417600631713867,10.908720970153809,0.28895944356918335,0.6801660656929016,-0.1829017996788025
1412183404.5686884,20.0,-0.038350656628608704,-0.011718256399035454,-0.020240623503923416,957735.0,78448548.0,1412183405.0,0.7455600500106812,1.05948007106781,10.006200790405273,0.2787982225418091,0.6909623146057129,-0.1822667121887207
1412183404.578828,20.0,-0.03408947214484215,-0.013848847709596157,-0.020240623503923416,957736.0,88481333.0,1412183405.0,-0.2746800184249878,0.8632800579071045,10.555561065673828,0.2934049665927887,0.6903272867202759,-0.18353687226772308
1412183404.5885646,20.0,-0.04048124700784683,-0.011718256399035454,-0.019175328314304352,957738.0,108420785.0,1412183405.0,-0.03924000263214111,0.43164002895355225,9.92772102355957,0.2768929898738861,0.6909623146057129,-0.17972642183303833
1412183404.5987632,20.0,-0.03408947214484215,-0.011718256399035454,-0.019175328314304352,957739.0,118797527.0,1412183405.0,0.19620001316070557,0.8240400552749634,9.966960906982422,0.3022960126399994,0.6896921992301941,-0.18353687226772308
1412183404.6087775,20.0,-0.03728536143898964,-0.012783551588654518,-0.02130592055618763,957740.0,128540078.0,1412183405.0,0.6278400421142578,0.9025200605392456,9.84924030303955,0.2851489782333374,0.6903272867202759,-0.18417194485664368
1412183404.618526,20.0,-0.036220062524080276,-0.009587664157152176,-0.019175328314304352,957742.0,148366512.0,1412183405.0,-0.2746800184249878,1.3341600894927979,10.477080345153809,0.2876892685890198,0.6903272867202759,-0.18480701744556427
1412183404.6286345,20.0,-0.03515476733446121,-0.012783551588654518,-0.02130592055618763,957743.0,158311970.0,1412183405.0,0.6670800447463989,0.70632004737854,9.92772102355957,0.299755722284317,0.6903272867202759,-0.18544209003448486
1412183404.6387267,20.0,-0.043677136301994324,-0.013848847709596157,-0.019175328314304352,957744.0,168480688.0,1412183405.0,0.35316002368927,1.8050401210784912,10.320120811462402,0.27943331003189087,0.6858817338943481,-0.18671225011348724
1412183404.6486678,20.0,-0.033024176955223083,-0.010652960278093815,-0.020240623503923416,957746.0,188271280.0,1412183405.0,0.03924000263214111,0.5886000394821167,9.966960906982422,0.3003907799720764,0.6903272867202759,-0.18671225011348724
1412183404.6587217,20.0,-0.04048124700784683,-0.014914143830537796,-0.020240623503923416,957747.0,198420981.0,1412183405.0,0.3139200210571289,0.8240400552749634,10.359360694885254,0.2921348214149475,0.6801660656929016,-0.18861746788024902
1412183404.6685863,20.0,-0.04261184111237526,-0.011718256399035454,-0.02130592055618763,957748.0,208538833.0,1412183405.0,0.15696001052856445,1.6480801105499268,9.92772102355957,0.2845138907432556,0.6909623146057129,-0.17909133434295654
1412183404.6789436,20.0,-0.03941595181822777,-0.012783551588654518,-0.020240623503923416,957750.0,228472169.0,1412183405.0,0.43164002895355225,0.70632004737854,10.712520599365234,0.2857840657234192,0.6896921992301941,-0.18417194485664368
1412183404.6887434,20.0,-0.041546545922756195,-0.013848847709596157,-0.02130592055618763,957751.0,238404851.0,1412183405.0,0.23544001579284668,1.41264009475708,10.437840461730957,0.28324374556541443,0.6858817338943481,-0.18480701744556427
1412183404.6986287,20.0,-0.03515476733446121,-0.013848847709596157,-0.020240623503923416,957753.0,258393425.0,1412183405.0,0.8240400552749634,0.6670800447463989,9.770760536193848,0.2864191234111786,0.6966780424118042,-0.18544209003448486
1412183404.7086017,20.0,-0.04048124700784683,-0.011718256399035454,-0.020240623503923416,957754.0,268343066.0,1412183405.0,-0.07848000526428223,1.4911201000213623,10.751760482788086,0.2864191234111786,0.6966780424118042,-0.18544209003448486
1412183404.7188501,20.0,-0.038350656628608704,-0.013848847709596157,-0.019175328314304352,957755.0,278541218.0,1412183405.0,-0.11772000789642334,0.39240002632141113,10.084680557250977,0.28197360038757324,0.6814361810684204,-0.190522700548172
1412183404.7286654,20.0,-0.04048124700784683,-0.012783551588654518,-0.02130592055618763,957757.0,298455471.0,1412183405.0,-0.07848000526428223,0.9025200605392456,10.202400207519531,0.28197360038757324,0.7011235356330872,-0.18734732270240784
1412183404.7387018,20.0,-0.04048124700784683,-0.012783551588654518,-0.020240623503923416,957758.0,308404312.0,1412183405.0,0.07848000526428223,0.5493600368499756,10.869481086730957,0.28197360038757324,0.6954078674316406,-0.18417194485664368
1412183404.7486825,20.0,-0.033024176955223083,-0.009587664157152176,-0.020240623503923416,957759.0,318887559.0,1412183405.0,0.11772000789642334,0.70632004737854,10.673280715942383,0.29721540212631226,0.6954078674316406,-0.18417194485664368
1412183404.7585661,20.0,-0.04261184111237526,-0.013848847709596157,-0.02130592055618763,957761.0,338668248.0,1412183405.0,0.70632004737854,0.70632004737854,9.8100004196167,0.28260868787765503,0.6852466464042664,-0.18544209003448486
1412183404.7687101,20.0,-0.036220062524080276,-0.009587664157152176,-0.02130592055618763,957762.0,348547773.0,1412183405.0,0.47088003158569336,0.6278400421142578,10.791000366210938,0.3003907799720764,0.6903272867202759,-0.17782118916511536
1412183404.7787035,20.0,-0.038350656628608704,-0.011718256399035454,-0.02130592055618763,957763.0,358460030.0,1412183405.0,-0.03924000263214111,1.1772000789642334,10.16316032409668,0.3003907799720764,0.6903272867202759,-0.17782118916511536
1412183404.7886095,20.0,-0.033024176955223083,-0.011718256399035454,-0.02130592055618763,957765.0,378484647.0,1412183405.0,0.6278400421142578,0.5886000394821167,10.045440673828125,0.2851489782333374,0.6757205128669739,-0.18036149442195892
1412183404.7986546,20.0,-0.03195888176560402,-0.017044736072421074,-0.019175328314304352,957766.0,388465871.0,1412183405.0,0.11772000789642334,0.11772000789642334,10.16316032409668,0.29086464643478394,0.6884220242500305,-0.1816316395998001
1412183404.8086534,20.0,-0.038350656628608704,-0.017044736072421074,-0.02130592055618763,957767.0,398456940.0,1412183405.0,0.47088003158569336,1.5303601026535034,10.359360694885254,0.29086464643478394,0.6884220242500305,-0.1816316395998001
1412183404.8186977,20.0,-0.03408947214484215,-0.013848847709596157,-0.019175328314304352,957769.0,418224883.0,1412183405.0,0.0,0.5886000394821167,10.202400207519531,0.2934049665927887,0.7068392038345337,-0.18036149442195892
1412183404.8287024,20.0,-0.03941595181822777,-0.014914143830537796,-0.02130592055618763,957770.0,428250052.0,1412183405.0,0.3139200210571289,0.43164002895355225,10.320120811462402,0.2927698791027069,0.6903272867202759,-0.1816316395998001
1412183404.8387485,20.0,-0.033024176955223083,-0.009587664157152176,-0.020240623503923416,957772.0,448239666.0,1412183405.0,0.23544001579284668,0.47088003158569336,10.202400207519531,0.28070345520973206,0.6865168213844299,-0.18861746788024902
1412183404.8483708,20.0,-0.03941595181822777,-0.009587664157152176,-0.020240623503923416,957773.0,458833541.0,1412183405.0,-0.47088003158569336,0.7848000526428223,10.712520599365234,0.2756228446960449,0.6903272867202759,-0.18544209003448486
1412183404.8586655,20.0,-0.04261184111237526,-0.010652960278093815,-0.020240623503923416,957774.0,468484307.0,1412183405.0,0.19620001316070557,0.9025200605392456,10.908720970153809,0.2787982225418091,0.6801660656929016,-0.18353687226772308
1412183404.868783,20.0,-0.04048124700784683,-0.009587664157152176,-0.019175328314304352,957776.0,488561269.0,1412183405.0,0.11772000789642334,1.373400092124939,10.516321182250977,0.2838788330554962,0.6903272867202759,-0.18544209003448486
1412183404.8787894,20.0,-0.04580772668123245,-0.012783551588654518,-0.02130592055618763,957777.0,498158814.0,1412183405.0,0.47088003158569336,0.70632004737854,10.869481086730957,0.2927698791027069,0.6852466464042664,-0.1829017996788025
1412183404.8885334,20.0,-0.03941595181822777,-0.010652960278093815,-0.020240623503923416,957778.0,508373412.0,1412183405.0,0.03924000263214111,0.9417600631713867,10.987200736999512,0.27943331003189087,0.6808010935783386,-0.1816316395998001
1412183404.898623,20.0,-0.03941595181822777,-0.011718256399035454,-0.02130592055618763,957780.0,528252689.0,1412183405.0,0.7455600500106812,1.1772000789642334,10.320120811462402,0.2934049665927887,0.6801660656929016,-0.18099656701087952
1412183404.9088204,20.0,-0.038350656628608704,-0.011718256399035454,-0.02130592055618763,957781.0,538494912.0,1412183405.0,-0.07848000526428223,0.9025200605392456,10.830240249633789,0.27943331003189087,0.6960429549217224,-0.18861746788024902
1412183404.9187417,20.0,-0.03408947214484215,-0.010652960278093815,-0.02130592055618763,957782.0,548510639.0,1412183405.0,0.15696001052856445,0.8240400552749634,10.751760482788086,0.2838788330554962,0.69350266456604,-0.17782118916511536
1412183404.928307,20.0,-0.041546545922756195,-0.01597944088280201,-0.02130592055618763,957784.0,568455837.0,1412183405.0,0.03924000263214111,1.3341600894927979,9.966960906982422,0.2870542109012604,0.6909623146057129,-0.18798239529132843
1412183404.9389079,20.0,-0.03408947214484215,-0.013848847709596157,-0.020240623503923416,957785.0,578372786.0,1412183405.0,0.15696001052856445,0.9810000658035278,10.987200736999512,0.2870542109012604,0.6960429549217224,-0.1829017996788025
1412183404.9486904,20.0,-0.03408947214484215,-0.012783551588654518,-0.020240623503923416,957786.0,588379170.0,1412183405.0,0.6278400421142578,0.8632800579071045,11.026440620422363,0.3029311001300812,0.6922324895858765,-0.1898876279592514
1412183404.958438,20.0,-0.033024176955223083,-0.009587664157152176,-0.020240623503923416,957788.0,608338481.0,1412183405.0,0.35316002368927,0.70632004737854,10.2416410446167,0.28832435607910156,0.6846115589141846,-0.1829017996788025
1412183404.9687,20.0,-0.03408947214484215,-0.011718256399035454,-0.020240623503923416,957789.0,618757491.0,1412183405.0,0.35316002368927,0.8632800579071045,10.516321182250977,0.28324374556541443,0.6985832452774048,-0.18544209003448486
1412183404.979209,20.0,-0.04261184111237526,-0.011718256399035454,-0.020240623503923416,957791.0,638705355.0,1412183405.0,0.43164002895355225,0.9417600631713867,10.398600578308105,0.28895944356918335,0.6909623146057129,-0.1829017996788025
1412183404.9887803,20.0,-0.03728536143898964,-0.008522368036210537,-0.020240623503923416,957792.0,648636069.0,1412183405.0,0.5886000394821167,0.9417600631713867,10.28088092803955,0.28895944356918335,0.6909623146057129,-0.1829017996788025
1412183404.9988542,20.0,-0.04048124700784683,-0.011718256399035454,-0.02130592055618763,957793.0,659058497.0,1412183405.0,0.03924000263214111,0.6670800447463989,10.634040832519531,0.29086464643478394,0.6896921992301941,-0.18417194485664368
1412183405.0088425,20.0,-0.03408947214484215,-0.010652960278093815,-0.020240623503923416,957795.0,678728904.0,1412183405.0,0.23544001579284668,0.7455600500106812,10.437840461730957,0.28959450125694275,0.6922324895858765,-0.18607717752456665
1412183405.0185187,20.0,-0.036220062524080276,-0.012783551588654518,-0.022371215745806694,957796.0,688520187.0,1412183405.0,0.23544001579284668,1.1379600763320923,9.966960906982422,0.28959450125694275,0.6922324895858765,-0.18607717752456665
1412183405.028366,20.0,-0.04474243149161339,-0.017044736072421074,-0.02130592055618763,957797.0,698386373.0,1412183405.0,0.35316002368927,0.47088003158569336,10.477080345153809,0.2921348214149475,0.7011235356330872,-0.17972642183303833
1412183405.0389323,20.0,-0.036220062524080276,-0.012783551588654518,-0.020240623503923416,957799.0,718542816.0,1412183405.0,-0.03924000263214111,1.1772000789642334,10.359360694885254,0.28959450125694275,0.6884220242500305,-0.17909133434295654
1412183405.0485625,20.0,-0.041546545922756195,-0.01597944088280201,-0.020240623503923416,957800.0,728206941.0,1412183405.0,0.23544001579284668,1.05948007106781,10.202400207519531,0.28959450125694275,0.6884220242500305,-0.17909133434295654
1412183405.058608,20.0,-0.036220062524080276,-0.012783551588654518,-0.020240623503923416,957801.0,738462892.0,1412183405.0,0.6670800447463989,0.2746800184249878,10.320120811462402,0.29848557710647583,0.6985832452774048,-0.18036149442195892
1412183405.068662,20.0,-0.04048124700784683,-0.013848847709596157,-0.019175328314304352,957803.0,758343855.0,1412183405.0,0.03924000263214111,0.5886000394821167,9.888481140136719,0.2946751117706299,0.6960429549217224,-0.18353687226772308
1412183405.0786462,20.0,-0.04261184111237526,-0.012783551588654518,-0.019175328314304352,957804.0,768398465.0,1412183405.0,0.11772000789642334,1.020240068435669,10.791000366210938,0.2775280773639679,0.6896921992301941,-0.1829017996788025
1412183405.0886862,20.0,-0.03515476733446121,-0.011718256399035454,-0.018110031262040138,957805.0,778833194.0,1412183405.0,-0.15696001052856445,0.7848000526428223,10.791000366210938,0.2775280773639679,0.6896921992301941,-0.1829017996788025
1412183405.0988123,20.0,-0.04474243149161339,-0.012783551588654518,-0.020240623503923416,957807.0,798370973.0,1412183405.0,0.47088003158569336,0.7848000526428223,10.673280715942383,0.2845138907432556,0.6858817338943481,-0.18480701744556427
1412183405.1085963,20.0,-0.03515476733446121,-0.012783551588654518,-0.019175328314304352,957808.0,808519709.0,1412183405.0,0.6670800447463989,0.9025200605392456,9.613801002502441,0.2756228446960449,0.6846115589141846,-0.17655104398727417
1412183405.1191263,20.0,-0.04474243149161339,-0.013848847709596157,-0.02130592055618763,957810.0,828508660.0,1412183405.0,-0.3139200210571289,0.5493600368499756,10.908720970153809,0.29785048961639404,0.6928675770759583,-0.18099656701087952
1412183405.1287065,20.0,-0.03941595181822777,-0.011718256399035454,-0.02130592055618763,957811.0,838535718.0,1412183405.0,0.03924000263214111,0.39240002632141113,10.398600578308105,0.28959450125694275,0.6960429549217224,-0.1816316395998001
1412183405.1386387,20.0,-0.036220062524080276,-0.010652960278093815,-0.020240623503923416,957812.0,848659707.0,1412183405.0,0.0,0.43164002895355225,10.477080345153809,0.2870542109012604,0.6909623146057129,-0.1829017996788025
1412183405.1485493,20.0,-0.038350656628608704,-0.011718256399035454,-0.020240623503923416,957814.0,868420196.0,1412183405.0,0.15696001052856445,1.2164400815963745,10.320120811462402,0.2946751117706299,0.6985832452774048,-0.1829017996788025
1412183405.1584816,20.0,-0.03195888176560402,-0.009587664157152176,-0.019175328314304352,957815.0,878516529.0,1412183405.0,0.07848000526428223,0.43164002895355225,10.123920440673828,0.2851489782333374,0.6801660656929016,-0.18417194485664368
1412183405.168666,20.0,-0.036220062524080276,-0.014914143830537796,-0.020240623503923416,957816.0,888748844.0,1412183405.0,0.5886000394821167,0.8240400552749634,10.830240249633789,0.2921348214149475,0.7062041759490967,-0.18798239529132843
1412183405.1786957,20.0,-0.033024176955223083,-0.011718256399035454,-0.020240623503923416,957818.0,908430997.0,1412183405.0,0.15696001052856445,-0.19620001316070557,10.202400207519531,0.2921348214149475,0.6852466464042664,-0.17782118916511536
1412183405.1885643,20.0,-0.038350656628608704,-0.018110031262040138,-0.020240623503923416,957819.0,918811828.0,1412183405.0,0.5101200342178345,0.6278400421142578,10.123920440673828,0.28260868787765503,0.6852466464042664,-0.1816316395998001
1412183405.1986282,20.0,-0.041546545922756195,-0.01597944088280201,-0.020240623503923416,957820.0,928520640.0,1412183405.0,0.3139200210571289,1.1379600763320923,10.830240249633789,0.28895944356918335,0.6985832452774048,-0.18544209003448486
1412183405.2087798,20.0,-0.033024176955223083,-0.010652960278093815,-0.020240623503923416,957822.0,948511271.0,1412183405.0,0.9025200605392456,0.8240400552749634,10.398600578308105,0.2768929898738861,0.6947727799415588,-0.1829017996788025
1412183405.2185879,20.0,-0.03941595181822777,-0.012783551588654518,-0.022371215745806694,957823.0,958400410.0,1412183405.0,0.6670800447463989,0.9025200605392456,10.987200736999512,0.3010258674621582,0.6903272867202759,-0.17782118916511536
1412183405.2286677,20.0,-0.038350656628608704,-0.011718256399035454,-0.02130592055618763,957824.0,968543712.0,1412183405.0,0.03924000263214111,0.9810000658035278,10.045440673828125,0.29785048961639404,0.6852466464042664,-0.1892525553703308
1412183405.2385952,20.0,-0.04474243149161339,-0.012783551588654518,-0.020240623503923416,957826.0,988391320.0,1412183405.0,1.1379600763320923,1.1772000789642334,10.359360694885254,0.28070345520973206,0.6896921992301941,-0.18798239529132843
1412183405.24847,20.0,-0.04580772668123245,-0.013848847709596157,-0.02130592055618763,957827.0,998337503.0,1412183405.0,0.0,1.0987200736999512,10.673280715942383,0.29721540212631226,0.6858817338943481,-0.18417194485664368
1412183405.258562,20.0,-0.038350656628608704,-0.010652960278093815,-0.020240623503923416,957828.0,8370756.0,1412183406.0,0.39240002632141113,0.7455600500106812,10.830240249633789,0.28832435607910156,0.6909623146057129,-0.17909133434295654
1412183405.268522,20.0,-0.03728536143898964,-0.011718256399035454,-0.02130592055618763,957830.0,28507483.0,1412183406.0,-0.03924000263214111,0.7455600500106812,10.2416410446167,0.28959450125694275,0.7062041759490967,-0.18417194485664368
1412183405.27878,20.0,-0.03408947214484215,-0.010652960278093815,-0.02130592055618763,957831.0,38423176.0,1412183406.0,0.2746800184249878,0.5493600368499756,10.398600578308105,0.29848557710647583,0.7023937106132507,-0.18036149442195892
1412183405.2887785,20.0,-0.04261184111237526,-0.017044736072421074,-0.020240623503923416,957833.0,58499938.0,1412183406.0,0.6670800447463989,0.6670800447463989,11.026440620422363,0.2946751117706299,0.6909623146057129,-0.1816316395998001
1412183405.29864,20.0,-0.04048124700784683,-0.014914143830537796,-0.02130592055618763,957834.0,68499040.0,1412183406.0,0.15696001052856445,1.1772000789642334,11.104920387268066,0.2946751117706299,0.6909623146057129,-0.1816316395998001
1412183405.3085995,20.0,-0.03515476733446121,-0.011718256399035454,-0.019175328314304352,957835.0,78344633.0,1412183406.0,-0.3139200210571289,0.9417600631713867,10.712520599365234,0.28197360038757324,0.6909623146057129,-0.18353687226772308
1412183405.3190513,20.0,-0.036220062524080276,-0.011718256399035454,-0.019175328314304352,957837.0,98446084.0,1412183406.0,0.6278400421142578,0.8632800579071045,10.398600578308105,0.29022958874702454,0.6973130702972412,-0.1822667121887207
1412183405.3287206,20.0,-0.033024176955223083,-0.009587664157152176,-0.020240623503923416,957838.0,108436527.0,1412183406.0,0.19620001316070557,0.47088003158569336,10.123920440673828,0.29022958874702454,0.6973130702972412,-0.1822667121887207
1412183405.3388743,20.0,-0.03941595181822777,-0.013848847709596157,-0.020240623503923416,957839.0,118568299.0,1412183406.0,0.0,1.4518800973892212,10.398600578308105,0.2845138907432556,0.6909623146057129,-0.17845626175403595
1412183405.3487234,20.0,-0.038350656628608704,-0.013848847709596157,-0.020240623503923416,957841.0,138431265.0,1412183406.0,-0.03924000263214111,0.19620001316070557,10.712520599365234,0.2864191234111786,0.6909623146057129,-0.18671225011348724
1412183405.358704,20.0,-0.03941595181822777,-0.010652960278093815,-0.018110031262040138,957842.0,148536912.0,1412183406.0,-0.43164002895355225,0.8632800579071045,10.2416410446167,0.2864191234111786,0.6909623146057129,-0.18671225011348724
1412183405.368692,20.0,-0.04261184111237526,-0.010652960278093815,-0.020240623503923416,957843.0,158516362.0,1412183406.0,0.70632004737854,1.1379600763320923,10.084680557250977,0.27943331003189087,0.6833414435386658,-0.1829017996788025
1412183405.3787005,20.0,-0.03408947214484215,-0.009587664157152176,-0.020240623503923416,957845.0,178454301.0,1412183406.0,0.03924000263214111,0.5493600368499756,9.92772102355957,0.27943331003189087,0.6846115589141846,-0.18861746788024902
1412183405.388706,20.0,-0.04048124700784683,-0.012783551588654518,-0.020240623503923416,957846.0,188388493.0,1412183406.0,0.15696001052856445,0.9025200605392456,10.084680557250977,0.29785048961639404,0.6922324895858765,-0.18353687226772308
1412183405.3986428,20.0,-0.04048124700784683,-0.013848847709596157,-0.020240623503923416,957847.0,198449832.0,1412183406.0,0.15696001052856445,0.6278400421142578,10.908720970153809,0.29785048961639404,0.6922324895858765,-0.18353687226772308
1412183405.4086921,20.0,-0.03941595181822777,-0.014914143830537796,-0.020240623503923416,957849.0,218512711.0,1412183406.0,0.23544001579284668,0.9417600631713867,10.437840461730957,0.28260868787765503,0.6903272867202759,-0.17782118916511536
1412183405.4184108,20.0,-0.03941595181822777,-0.01597944088280201,-0.020240623503923416,957850.0,228312681.0,1412183406.0,-0.07848000526428223,0.7455600500106812,10.2416410446167,0.29531019926071167,0.6947727799415588,-0.1829017996788025
1412183405.4284487,20.0,-0.030893584713339806,-0.010652960278093815,-0.019175328314304352,957851.0,238372260.0,1412183406.0,-0.03924000263214111,0.8632800579071045,10.202400207519531,0.29531019926071167,0.6947727799415588,-0.1829017996788025
1412183405.438816,20.0,-0.03941595181822777,-0.01597944088280201,-0.022371215745806694,957853.0,258529835.0,1412183406.0,0.5101200342178345,1.1379600763320923,10.2416410446167,0.2927698791027069,0.6903272867202759,-0.18417194485664368
1412183405.4484296,20.0,-0.038350656628608704,-0.012783551588654518,-0.020240623503923416,957854.0,268364183.0,1412183406.0,-0.2746800184249878,0.9417600631713867,10.712520599365234,0.2927698791027069,0.6801660656929016,-0.18099656701087952
1412183405.4590063,20.0,-0.04580772668123245,-0.012783551588654518,-0.020240623503923416,957856.0,288446619.0,1412183406.0,0.19620001316070557,1.1772000789642334,11.104920387268066,0.28006836771965027,0.6852466464042664,-0.1752808839082718
1412183405.4686446,20.0,-0.03941595181822777,-0.011718256399035454,-0.02130592055618763,957857.0,298273427.0,1412183406.0,-0.23544001579284668,1.05948007106781,9.84924030303955,0.29785048961639404,0.6903272867202759,-0.18099656701087952
1412183405.478525,20.0,-0.03408947214484215,-0.008522368036210537,-0.02130592055618763,957858.0,308621222.0,1412183406.0,0.35316002368927,0.6278400421142578,10.59480094909668,0.27371761202812195,0.6763556003570557,-0.18671225011348724
1412183405.4888124,20.0,-0.04048124700784683,-0.010652960278093815,-0.02130592055618763,957860.0,328425639.0,1412183406.0,-0.35316002368927,1.05948007106781,10.94796085357666,0.28959450125694275,0.6903272867202759,-0.18036149442195892
1412183405.4983442,20.0,-0.03728536143898964,-0.011718256399035454,-0.019175328314304352,957861.0,338526063.0,1412183406.0,-0.07848000526428223,0.8240400552749634,10.006200790405273,0.29594525694847107,0.6846115589141846,-0.1829017996788025
1412183405.5085697,20.0,-0.04048124700784683,-0.013848847709596157,-0.02130592055618763,957862.0,348447116.0,1412183406.0,0.5101200342178345,0.6670800447463989,10.359360694885254,0.2787982225418091,0.6846115589141846,-0.1829017996788025
1412183405.518772,20.0,-0.03515476733446121,-0.010652960278093815,-0.019175328314304352,957864.0,368491288.0,1412183406.0,-0.3139200210571289,0.6670800447463989,10.084680557250977,0.28895944356918335,0.6960429549217224,-0.1816316395998001
1412183405.5284507,20.0,-0.03195888176560402,-0.010652960278093815,-0.02130592055618763,957865.0,378305521.0,1412183406.0,0.43164002895355225,0.35316002368927,10.202400207519531,0.2762579321861267,0.6750854253768921,-0.18480701744556427
1412183405.5386667,20.0,-0.038350656628608704,-0.014914143830537796,-0.02130592055618763,957866.0,388711406.0,1412183406.0,-0.2746800184249878,1.1379600763320923,10.359360694885254,0.29785048961639404,0.6846115589141846,-0.190522700548172
1412183405.5487468,20.0,-0.03515476733446121,-0.014914143830537796,-0.020240623503923416,957868.0,408459841.0,1412183406.0,0.47088003158569336,0.39240002632141113,11.104920387268066,0.3010258674621582,0.6884220242500305,-0.18353687226772308
1412183405.5585573,20.0,-0.043677136301994324,-0.013848847709596157,-0.02130592055618763,957869.0,418694024.0,1412183406.0,0.0,0.8632800579071045,9.966960906982422,0.2781631350517273,0.6985832452774048,-0.17782118916511536
1412183405.5686328,20.0,-0.04261184111237526,-0.013848847709596157,-0.020240623503923416,957870.0,428379145.0,1412183406.0,0.15696001052856445,1.0987200736999512,10.398600578308105,0.29848557710647583,0.6903272867202759,-0.18544209003448486
1412183405.5785604,20.0,-0.038350656628608704,-0.011718256399035454,-0.020240623503923416,957872.0,448419637.0,1412183406.0,0.35316002368927,0.8240400552749634,10.477080345153809,0.28324374556541443,0.6852466464042664,-0.1829017996788025
1412183405.5886,20.0,-0.03941595181822777,-0.012783551588654518,-0.020240623503923416,957873.0,458539600.0,1412183406.0,0.3139200210571289,0.47088003158569336,10.084680557250977,0.29022958874702454,0.6909623146057129,-0.1822667121887207
1412183405.5985534,20.0,-0.03941595181822777,-0.013848847709596157,-0.020240623503923416,957875.0,478732425.0,1412183406.0,0.5886000394821167,0.5886000394821167,10.359360694885254,0.2781631350517273,0.6909623146057129,-0.18417194485664368
1412183405.6085565,20.0,-0.04580772668123245,-0.01597944088280201,-0.020240623503923416,957876.0,488544812.0,1412183406.0,-0.35316002368927,0.5886000394821167,9.888481140136719,0.2781631350517273,0.6909623146057129,-0.18417194485664368
1412183405.6189878,20.0,-0.038350656628608704,-0.011718256399035454,-0.018110031262040138,957877.0,498347070.0,1412183406.0,0.6278400421142578,0.6670800447463989,10.359360694885254,0.3003907799720764,0.6973130702972412,-0.18036149442195892
1412183405.6284864,20.0,-0.03941595181822777,-0.012783551588654518,-0.020240623503923416,957879.0,518381195.0,1412183406.0,-0.15696001052856445,0.6670800447463989,10.28088092803955,0.2870542109012604,0.6960429549217224,-0.18036149442195892
1412183405.6388574,20.0,-0.03728536143898964,-0.012783551588654518,-0.020240623503923416,957880.0,528244315.0,1412183406.0,0.35316002368927,0.9417600631713867,9.84924030303955,0.2870542109012604,0.6960429549217224,-0.18036149442195892
1412183405.6488519,20.0,-0.030893584713339806,-0.009587664157152176,-0.020240623503923416,957881.0,538509610.0,1412183406.0,0.19620001316070557,1.2164400815963745,10.516321182250977,0.2921348214149475,0.6865168213844299,-0.18861746788024902
1412183405.6592233,20.0,-0.041546545922756195,-0.017044736072421074,-0.02130592055618763,957883.0,558522161.0,1412183406.0,0.39240002632141113,0.6278400421142578,10.398600578308105,0.29022958874702454,0.6896921992301941,-0.1816316395998001
1412183405.668969,20.0,-0.036220062524080276,-0.010652960278093815,-0.020240623503923416,957884.0,568510714.0,1412183406.0,-0.19620001316070557,1.2949200868606567,10.320120811462402,0.29022958874702454,0.6896921992301941,-0.1816316395998001
1412183405.6789343,20.0,-0.03728536143898964,-0.010652960278093815,-0.019175328314304352,957885.0,578418930.0,1412183406.0,-0.03924000263214111,0.6278400421142578,9.731520652770996,0.2775280773639679,0.6903272867202759,-0.18353687226772308
1412183405.6887226,20.0,-0.033024176955223083,-0.009587664157152176,-0.020240623503923416,957887.0,598593897.0,1412183406.0,-0.19620001316070557,0.9025200605392456,10.398600578308105,0.30166095495224,0.6928675770759583,-0.18861746788024902
1412183405.6986184,20.0,-0.03408947214484215,-0.010652960278093815,-0.019175328314304352,957888.0,608246377.0,1412183406.0,-0.11772000789642334,0.9025200605392456,10.59480094909668,0.30166095495224,0.6928675770759583,-0.18861746788024902
1412183405.708795,20.0,-0.04261184111237526,-0.013848847709596157,-0.02130592055618763,957889.0,618470017.0,1412183406.0,0.0,1.6873201131820679,10.202400207519531,0.27498775720596313,0.6801660656929016,-0.18036149442195892
1412183405.7186918,20.0,-0.03515476733446121,-0.010652960278093815,-0.02130592055618763,957891.0,638449565.0,1412183406.0,-0.11772000789642334,0.23544001579284668,10.28088092803955,0.2914997339248657,0.6852466464042664,-0.18036149442195892
1412183405.7283783,20.0,-0.038350656628608704,-0.011718256399035454,-0.020240623503923416,957892.0,648362609.0,1412183406.0,0.19620001316070557,1.05948007106781,10.830240249633789,0.2914997339248657,0.6852466464042664,-0.18036149442195892
1412183405.7386906,20.0,-0.030893584713339806,-0.012783551588654518,-0.020240623503923416,957894.0,668371286.0,1412183406.0,-0.03924000263214111,0.19620001316070557,10.712520599365234,0.29912063479423523,0.6852466464042664,-0.190522700548172
1412183405.748581,20.0,-0.036220062524080276,-0.012783551588654518,-0.019175328314304352,957895.0,678364341.0,1412183406.0,0.6670800447463989,0.70632004737854,10.791000366210938,0.27943331003189087,0.6903272867202759,-0.18353687226772308
1412183405.7585087,20.0,-0.04474243149161339,-0.014914143830537796,-0.019175328314304352,957896.0,688456517.0,1412183406.0,-0.3139200210571289,1.373400092124939,10.437840461730957,0.28832435607910156,0.6954078674316406,-0.18480701744556427
1412183405.7685897,20.0,-0.036220062524080276,-0.012783551588654518,-0.019175328314304352,957898.0,708606396.0,1412183406.0,0.70632004737854,0.6278400421142578,10.123920440673828,0.3029311001300812,0.6954078674316406,-0.1892525553703308
1412183405.7790642,20.0,-0.04261184111237526,-0.014914143830537796,-0.020240623503923416,957899.0,718220487.0,1412183406.0,-0.15696001052856445,1.2556800842285156,10.202400207519531,0.27308255434036255,0.6903272867202759,-0.18734732270240784
1412183405.788565,20.0,-0.03515476733446121,-0.011718256399035454,-0.019175328314304352,957900.0,728296906.0,1412183406.0,0.0,0.43164002895355225,10.830240249633789,0.299755722284317,0.6852466464042664,-0.18861746788024902
1412183405.7985768,20.0,-0.03941595181822777,-0.011718256399035454,-0.019175328314304352,957902.0,748771057.0,1412183406.0,0.2746800184249878,1.373400092124939,10.516321182250977,0.2845138907432556,0.6909623146057129,-0.18353687226772308
1412183405.8087027,20.0,-0.03941595181822777,-0.013848847709596157,-0.019175328314304352,957903.0,758466372.0,1412183406.0,-0.23544001579284668,0.39240002632141113,10.555561065673828,0.2781631350517273,0.6884220242500305,-0.17845626175403595
1412183405.818493,20.0,-0.036220062524080276,-0.011718256399035454,-0.020240623503923416,957904.0,768610531.0,1412183406.0,0.03924000263214111,0.5886000394821167,10.59480094909668,0.2845138907432556,0.6909623146057129,-0.1829017996788025
1412183405.828695,20.0,-0.04261184111237526,-0.012783551588654518,-0.020240623503923416,957906.0,788536359.0,1412183406.0,-0.03924000263214111,0.5886000394821167,10.673280715942383,0.2845138907432556,0.6852466464042664,-0.18036149442195892
1412183405.8387668,20.0,-0.03408947214484215,-0.010652960278093815,-0.020240623503923416,957907.0,798866105.0,1412183406.0,0.70632004737854,0.8240400552749634,11.144161224365234,0.2934049665927887,0.6966780424118042,-0.1892525553703308
1412183405.8488994,20.0,-0.03728536143898964,-0.010652960278093815,-0.02130592055618763,957908.0,808508069.0,1412183406.0,0.15696001052856445,0.9417600631713867,10.712520599365234,0.29086464643478394,0.6750854253768921,-0.18353687226772308
1412183405.8588068,20.0,-0.03728536143898964,-0.010652960278093815,-0.020240623503923416,957910.0,828417245.0,1412183406.0,-0.15696001052856445,0.39240002632141113,10.437840461730957,0.2768929898738861,0.6757205128669739,-0.1829017996788025
1412183405.8686647,20.0,-0.03728536143898964,-0.010652960278093815,-0.020240623503923416,957911.0,838402535.0,1412183406.0,0.35316002368927,0.7848000526428223,10.908720970153809,0.3003907799720764,0.6903272867202759,-0.18353687226772308
1412183405.8787067,20.0,-0.041546545922756195,-0.013848847709596157,-0.020240623503923416,957912.0,848636007.0,1412183406.0,0.5886000394821167,0.5493600368499756,10.084680557250977,0.2781631350517273,0.6782608032226562,-0.17845626175403595
1412183405.8890738,20.0,-0.03195888176560402,-0.010652960278093815,-0.020240623503923416,957914.0,868442865.0,1412183406.0,0.03924000263214111,0.6278400421142578,11.183401107788086,0.3003907799720764,0.7011235356330872,-0.18861746788024902
1412183405.8986602,20.0,-0.038350656628608704,-0.012783551588654518,-0.020240623503923416,957915.0,878385978.0,1412183406.0,0.35316002368927,1.3341600894927979,10.006200790405273,0.2940400242805481,0.6795309782028198,-0.18607717752456665
1412183405.908621,20.0,-0.036220062524080276,-0.010652960278093815,-0.019175328314304352,957917.0,898401983.0,1412183406.0,0.07848000526428223,1.2556800842285156,10.2416410446167,0.2914997339248657,0.6903272867202759,-0.18544209003448486
1412183405.9191313,20.0,-0.038350656628608704,-0.014914143830537796,-0.022371215745806694,957918.0,908339763.0,1412183406.0,-0.07848000526428223,0.8632800579071045,10.59480094909668,0.2914997339248657,0.6903272867202759,-0.18544209003448486
1412183405.9287012,20.0,-0.043677136301994324,-0.013848847709596157,-0.020240623503923416,957919.0,918473939.0,1412183406.0,0.35316002368927,0.9417600631713867,10.477080345153809,0.28070345520973206,0.6877869367599487,-0.18036149442195892
1412183405.9387133,20.0,-0.03515476733446121,-0.012783551588654518,-0.022371215745806694,957921.0,938560940.0,1412183406.0,0.0,0.9025200605392456,10.830240249633789,0.2870542109012604,0.6858817338943481,-0.18353687226772308
1412183405.9487555,20.0,-0.043677136301994324,-0.013848847709596157,-0.019175328314304352,957922.0,948235711.0,1412183406.0,-0.19620001316070557,0.6670800447463989,10.398600578308105,0.2870542109012604,0.6858817338943481,-0.18353687226772308
1412183405.958578,20.0,-0.038350656628608704,-0.012783551588654518,-0.019175328314304352,957923.0,958380195.0,1412183406.0,0.43164002895355225,0.43164002895355225,10.516321182250977,0.28133851289749146,0.6896921992301941,-0.17909133434295654
1412183405.9687307,20.0,-0.041546545922756195,-0.013848847709596157,-0.020240623503923416,957925.0,978364103.0,1412183406.0,-0.03924000263214111,0.70632004737854,10.123920440673828,0.2845138907432556,0.6846115589141846,-0.18480701744556427
1412183405.978701,20.0,-0.038350656628608704,-0.012783551588654518,-0.020240623503923416,957926.0,988732334.0,1412183406.0,0.5101200342178345,0.7848000526428223,10.59480094909668,0.2845138907432556,0.6846115589141846,-0.18480701744556427
1412183405.9886246,20.0,-0.03195888176560402,-0.006391775794327259,-0.019175328314304352,957927.0,998514925.0,1412183406.0,0.6670800447463989,0.7848000526428223,10.123920440673828,0.30483633279800415,0.6954078674316406,-0.190522700548172
1412183405.9985209,20.0,-0.04261184111237526,-0.014914143830537796,-0.02130592055618763,957929.0,18605887.0,1412183407.0,0.19620001316070557,1.0987200736999512,10.28088092803955,0.27943331003189087,0.6877869367599487,-0.18607717752456665
1412183406.0085564,20.0,-0.036220062524080276,-0.011718256399035454,-0.020240623503923416,957930.0,28614702.0,1412183407.0,0.35316002368927,1.373400092124939,10.869481086730957,0.27943331003189087,0.6877869367599487,-0.18607717752456665
1412183406.018817,20.0,-0.03728536143898964,-0.013848847709596157,-0.019175328314304352,957931.0,38598831.0,1412183407.0,-0.15696001052856445,0.8240400552749634,10.359360694885254,0.3029311001300812,0.6896921992301941,-0.18353687226772308
1412183406.0286777,20.0,-0.03408947214484215,-0.011718256399035454,-0.020240623503923416,957933.0,58433694.0,1412183407.0,0.39240002632141113,1.1772000789642334,10.320120811462402,0.2940400242805481,0.6960429549217224,-0.18417194485664368
1412183406.0386028,20.0,-0.03195888176560402,-0.011718256399035454,-0.020240623503923416,957934.0,68343674.0,1412183407.0,0.15696001052856445,0.9417600631713867,10.712520599365234,0.2940400242805481,0.6960429549217224,-0.18417194485664368
1412183406.0484564,20.0,-0.041546545922756195,-0.01597944088280201,-0.02130592055618763,957935.0,78712799.0,1412183407.0,0.70632004737854,1.1379600763320923,10.673280715942383,0.28959450125694275,0.7011235356330872,-0.18734732270240784
1412183406.0587652,20.0,-0.036220062524080276,-0.010652960278093815,-0.019175328314304352,957937.0,98483708.0,1412183407.0,0.0,1.2949200868606567,10.477080345153809,0.29531019926071167,0.6801660656929016,-0.18417194485664368
1412183406.0688007,20.0,-0.04261184111237526,-0.011718256399035454,-0.020240623503923416,957938.0,108415250.0,1412183407.0,0.07848000526428223,1.2164400815963745,10.045440673828125,0.28006836771965027,0.6985832452774048,-0.18099656701087952
1412183406.0785081,20.0,-0.03408947214484215,-0.010652960278093815,-0.019175328314304352,957940.0,128283898.0,1412183407.0,0.15696001052856445,0.70632004737854,10.634040832519531,0.30483633279800415,0.6922324895858765,-0.18544209003448486
1412183406.0890045,20.0,-0.038350656628608704,-0.010652960278093815,-0.020240623503923416,957941.0,138971120.0,1412183407.0,0.07848000526428223,1.0987200736999512,11.065680503845215,0.29658034443855286,0.6954078674316406,-0.18036149442195892
1412183406.0986266,20.0,-0.04261184111237526,-0.013848847709596157,-0.02130592055618763,957942.0,148395083.0,1412183407.0,-0.03924000263214111,0.6278400421142578,10.045440673828125,0.27498775720596313,0.6846115589141846,-0.18036149442195892
1412183406.1086266,20.0,-0.03941595181822777,-0.013848847709596157,-0.020240623503923416,957944.0,168596063.0,1412183407.0,0.9417600631713867,0.8240400552749634,10.084680557250977,0.3003907799720764,0.6903272867202759,-0.18353687226772308
1412183406.1188169,20.0,-0.043677136301994324,-0.012783551588654518,-0.019175328314304352,957945.0,178389962.0,1412183407.0,0.23544001579284668,0.9417600631713867,10.477080345153809,0.28006836771965027,0.6858817338943481,-0.18353687226772308
1412183406.1284432,20.0,-0.038350656628608704,-0.013848847709596157,-0.02130592055618763,957946.0,188243677.0,1412183407.0,0.07848000526428223,1.3341600894927979,10.006200790405273,0.28832435607910156,0.6858817338943481,-0.18036149442195892
1412183406.1386058,20.0,-0.03941595181822777,-0.014914143830537796,-0.020240623503923416,957948.0,208462933.0,1412183407.0,-0.15696001052856445,0.6278400421142578,10.555561065673828,0.2946751117706299,0.6852466464042664,-0.18544209003448486
1412183406.1487687,20.0,-0.03941595181822777,-0.017044736072421074,-0.020240623503923416,957949.0,218461355.0,1412183407.0,0.23544001579284668,0.6670800447463989,10.398600578308105,0.2768929898738861,0.6757205128669739,-0.18099656701087952
1412183406.1586895,20.0,-0.036220062524080276,-0.011718256399035454,-0.019175328314304352,957950.0,228703467.0,1412183407.0,0.8240400552749634,0.6670800447463989,10.359360694885254,0.2946751117706299,0.6903272867202759,-0.18417194485664368
1412183406.1688058,20.0,-0.04474243149161339,-0.014914143830537796,-0.020240623503923416,957952.0,248406232.0,1412183407.0,-0.19620001316070557,0.8632800579071045,10.555561065673828,0.28895944356918335,0.6960429549217224,-0.18734732270240784
1412183406.1786246,20.0,-0.03408947214484215,-0.008522368036210537,-0.019175328314304352,957953.0,258776373.0,1412183407.0,0.11772000789642334,1.020240068435669,11.30112075805664,0.2870542109012604,0.6909623146057129,-0.17909133434295654
1412183406.1885686,20.0,-0.03408947214484215,-0.010652960278093815,-0.020240623503923416,957954.0,268464683.0,1412183407.0,-0.23544001579284668,0.43164002895355225,10.477080345153809,0.2940400242805481,0.69350266456604,-0.18544209003448486
1412183406.1986458,20.0,-0.036220062524080276,-0.011718256399035454,-0.020240623503923416,957956.0,288456376.0,1412183407.0,0.19620001316070557,1.05948007106781,10.59480094909668,0.2781631350517273,0.6877869367599487,-0.1829017996788025
1412183406.2085378,20.0,-0.036220062524080276,-0.011718256399035454,-0.020240623503923416,957957.0,298491791.0,1412183407.0,0.07848000526428223,0.5493600368499756,9.966960906982422,0.2946751117706299,0.7011235356330872,-0.18544209003448486
1412183406.2186868,20.0,-0.04048124700784683,-0.013848847709596157,-0.02130592055618763,957959.0,318395026.0,1412183407.0,0.7455600500106812,0.6278400421142578,10.398600578308105,0.28895944356918335,0.6896921992301941,-0.18353687226772308
1412183406.2284994,20.0,-0.03195888176560402,-0.008522368036210537,-0.020240623503923416,957960.0,328335253.0,1412183407.0,0.15696001052856445,0.9025200605392456,10.123920440673828,0.28895944356918335,0.6896921992301941,-0.18353687226772308
1412183406.2385588,20.0,-0.038350656628608704,-0.012783551588654518,-0.02130592055618763,957961.0,338614621.0,1412183407.0,0.35316002368927,0.7848000526428223,10.398600578308105,0.2870542109012604,0.6960429549217224,-0.1829017996788025
1412183406.248754,20.0,-0.03408947214484215,-0.011718256399035454,-0.020240623503923416,957963.0,358192968.0,1412183407.0,0.43164002895355225,0.6670800447463989,10.084680557250977,0.2845138907432556,0.6884220242500305,-0.1829017996788025
1412183406.2587452,20.0,-0.041546545922756195,-0.017044736072421074,-0.020240623503923416,957964.0,368468562.0,1412183407.0,-0.15696001052856445,1.020240068435669,10.59480094909668,0.2845138907432556,0.6884220242500305,-0.1829017996788025
1412183406.2686174,20.0,-0.04474243149161339,-0.014914143830537796,-0.020240623503923416,957965.0,378386230.0,1412183407.0,-0.19620001316070557,0.7848000526428223,10.16316032409668,0.29594525694847107,0.7011235356330872,-0.18417194485664368
1412183406.2786772,20.0,-0.033024176955223083,-0.009587664157152176,-0.019175328314304352,957967.0,398734697.0,1412183407.0,0.47088003158569336,0.7455600500106812,10.006200790405273,0.2851489782333374,0.6960429549217224,-0.1829017996788025
1412183406.2886236,20.0,-0.041546545922756195,-0.014914143830537796,-0.020240623503923416,957968.0,408433001.0,1412183407.0,0.43164002895355225,0.9417600631713867,10.2416410446167,0.2851489782333374,0.6960429549217224,-0.1829017996788025
1412183406.2985752,20.0,-0.03941595181822777,-0.012783551588654518,-0.020240623503923416,957969.0,418139272.0,1412183407.0,-0.07848000526428223,1.05948007106781,10.555561065673828,0.2845138907432556,0.6801660656929016,-0.18417194485664368
1412183406.3087828,20.0,-0.04261184111237526,-0.013848847709596157,-0.020240623503923416,957971.0,438556275.0,1412183407.0,0.43164002895355225,0.6278400421142578,10.437840461730957,0.299755722284317,0.7011235356330872,-0.18607717752456665
1412183406.3187935,20.0,-0.043677136301994324,-0.013848847709596157,-0.020240623503923416,957972.0,448408140.0,1412183407.0,-0.11772000789642334,1.5696001052856445,10.634040832519531,0.299755722284317,0.7011235356330872,-0.18607717752456665
1412183406.3286643,20.0,-0.03408947214484215,-0.009587664157152176,-0.02130592055618763,957973.0,458775353.0,1412183407.0,0.19620001316070557,0.43164002895355225,10.712520599365234,0.28197360038757324,0.6750854253768921,-0.18353687226772308
1412183406.3387516,20.0,-0.04048124700784683,-0.014914143830537796,-0.020240623503923416,957975.0,478404313.0,1412183407.0,-0.15696001052856445,1.020240068435669,10.830240249633789,0.28959450125694275,0.6960429549217224,-0.1822667121887207
1412183406.3486867,20.0,-0.03408947214484215,-0.011718256399035454,-0.018110031262040138,957976.0,488532756.0,1412183407.0,-0.2746800184249878,1.6088401079177856,10.477080345153809,0.28959450125694275,0.6960429549217224,-0.1822667121887207
1412183406.3585258,20.0,-0.036220062524080276,-0.010652960278093815,-0.018110031262040138,957977.0,498582004.0,1412183407.0,0.07848000526428223,0.6278400421142578,10.437840461730957,0.28260868787765503,0.6852466464042664,-0.1816316395998001
1412183406.368756,20.0,-0.038350656628608704,-0.014914143830537796,-0.022371215745806694,957979.0,518584769.0,1412183407.0,-0.15696001052856445,1.4911201000213623,10.869481086730957,0.2781631350517273,0.6808010935783386,-0.18861746788024902
1412183406.3784978,20.0,-0.03515476733446121,-0.011718256399035454,-0.019175328314304352,957980.0,528179740.0,1412183407.0,0.07848000526428223,1.2164400815963745,11.340360641479492,0.2781631350517273,0.6808010935783386,-0.18861746788024902
1412183406.3889463,20.0,-0.038350656628608704,-0.011718256399035454,-0.020240623503923416,957982.0,548630323.0,1412183407.0,0.39240002632141113,0.7455600500106812,10.477080345153809,0.3003907799720764,0.6903272867202759,-0.18036149442195892
1412183406.3985574,20.0,-0.033024176955223083,-0.008522368036210537,-0.019175328314304352,957983.0,558414445.0,1412183407.0,0.3139200210571289,0.9025200605392456,10.94796085357666,0.2857840657234192,0.6960429549217224,-0.1816316395998001
1412183406.4087124,20.0,-0.03941595181822777,-0.01597944088280201,-0.020240623503923416,957984.0,568332588.0,1412183407.0,0.07848000526428223,1.1379600763320923,10.477080345153809,0.2876892685890198,0.6909623146057129,-0.1822667121887207
1412183406.4189107,20.0,-0.03728536143898964,-0.011718256399035454,-0.019175328314304352,957986.0,588286396.0,1412183407.0,0.6670800447463989,0.9810000658035278,10.59480094909668,0.2857840657234192,0.6960429549217224,-0.17909133434295654
1412183406.4285743,20.0,-0.03728536143898964,-0.011718256399035454,-0.019175328314304352,957987.0,598823567.0,1412183407.0,0.07848000526428223,0.8632800579071045,10.987200736999512,0.28260868787765503,0.6814361810684204,-0.18671225011348724
1412183406.438578,20.0,-0.03941595181822777,-0.014914143830537796,-0.02130592055618763,957988.0,608392590.0,1412183407.0,-0.2746800184249878,1.4518800973892212,10.712520599365234,0.2927698791027069,0.6903272867202759,-0.18353687226772308
1412183406.4486613,20.0,-0.03515476733446121,-0.011718256399035454,-0.020240623503923416,957990.0,628465408.0,1412183407.0,0.5493600368499756,0.8240400552749634,10.28088092803955,0.28197360038757324,0.6884220242500305,-0.18734732270240784
1412183406.4587543,20.0,-0.04261184111237526,-0.014914143830537796,-0.020240623503923416,957991.0,638632693.0,1412183407.0,-0.15696001052856445,0.9810000658035278,10.084680557250977,0.29531019926071167,0.6896921992301941,-0.18671225011348724
1412183406.468443,20.0,-0.04048124700784683,-0.01597944088280201,-0.02130592055618763,957992.0,648242767.0,1412183407.0,0.11772000789642334,1.373400092124939,10.398600578308105,0.28832435607910156,0.6795309782028198,-0.190522700548172
1412183406.4789286,20.0,-0.038350656628608704,-0.010652960278093815,-0.020240623503923416,957994.0,668320253.0,1412183407.0,-0.11772000789642334,1.2949200868606567,10.634040832519531,0.3003907799720764,0.6801660656929016,-0.1829017996788025
1412183406.4887874,20.0,-0.038350656628608704,-0.012783551588654518,-0.019175328314304352,957995.0,678471216.0,1412183407.0,0.0,1.2556800842285156,10.869481086730957,0.28324374556541443,0.6782608032226562,-0.18671225011348724
1412183406.4985409,20.0,-0.033024176955223083,-0.008522368036210537,-0.020240623503923416,957996.0,688470625.0,1412183407.0,0.39240002632141113,0.43164002895355225,10.555561065673828,0.29086464643478394,0.6896921992301941,-0.18671225011348724
1412183406.508579,20.0,-0.043677136301994324,-0.014914143830537796,-0.020240623503923416,957998.0,708273288.0,1412183407.0,0.47088003158569336,0.5101200342178345,10.477080345153809,0.2921348214149475,0.7004884481430054,-0.1829017996788025
1412183406.5186055,20.0,-0.03941595181822777,-0.012783551588654518,-0.020240623503923416,957999.0,718446097.0,1412183407.0,0.6278400421142578,1.373400092124939,10.398600578308105,0.2864191234111786,0.6833414435386658,-0.18480701744556427
1412183406.5284252,20.0,-0.04261184111237526,-0.013848847709596157,-0.022371215745806694,958001.0,738397863.0,1412183407.0,-0.11772000789642334,0.8240400552749634,10.398600578308105,0.2921348214149475,0.7004884481430054,-0.18544209003448486
1412183406.5387483,20.0,-0.036220062524080276,-0.010652960278093815,-0.02130592055618763,958002.0,748334378.0,1412183407.0,0.19620001316070557,0.8240400552749634,10.673280715942383,0.2927698791027069,0.7004884481430054,-0.18544209003448486
1412183406.548726,20.0,-0.033024176955223083,-0.010652960278093815,-0.019175328314304352,958003.0,758633716.0,1412183407.0,0.23544001579284668,0.8240400552749634,9.49608039855957,0.2864191234111786,0.6871519088745117,-0.1829017996788025
1412183406.5587645,20.0,-0.03941595181822777,-0.013848847709596157,-0.02130592055618763,958005.0,778339679.0,1412183407.0,0.11772000789642334,1.6480801105499268,10.869481086730957,0.2864191234111786,0.6846115589141846,-0.18036149442195892
1412183406.5687032,20.0,-0.03728536143898964,-0.009587664157152176,-0.020240623503923416,958006.0,788179049.0,1412183407.0,0.35316002368927,0.6278400421142578,11.065680503845215,0.2864191234111786,0.6846115589141846,-0.18036149442195892
1412183406.5786579,20.0,-0.04048124700784683,-0.013848847709596157,-0.019175328314304352,958007.0,798500268.0,1412183407.0,0.23544001579284668,1.020240068435669,10.123920440673828,0.29086464643478394,0.6903272867202759,-0.18353687226772308
1412183406.588831,20.0,-0.033024176955223083,-0.009587664157152176,-0.019175328314304352,958009.0,818242239.0,1412183407.0,0.5101200342178345,0.6670800447463989,10.123920440673828,0.28959450125694275,0.6852466464042664,-0.18099656701087952
1412183406.5988522,20.0,-0.03408947214484215,-0.011718256399035454,-0.020240623503923416,958010.0,828519792.0,1412183407.0,0.2746800184249878,0.5886000394821167,10.123920440673828,0.28959450125694275,0.6852466464042664,-0.18099656701087952
1412183406.608411,20.0,-0.04048124700784683,-0.017044736072421074,-0.022371215745806694,958011.0,838495590.0,1412183407.0,0.2746800184249878,1.0987200736999512,9.84924030303955,0.2940400242805481,0.6998534202575684,-0.1816316395998001
1412183406.618714,20.0,-0.036220062524080276,-0.011718256399035454,-0.02130592055618763,958013.0,858569068.0,1412183407.0,-0.2746800184249878,0.6278400421142578,10.045440673828125,0.27435269951820374,0.6903272867202759,-0.18798239529132843
1412183406.6286674,20.0,-0.04474243149161339,-0.017044736072421074,-0.020240623503923416,958014.0,868630202.0,1412183407.0,0.5101200342178345,1.020240068435669,10.123920440673828,0.27435269951820374,0.6903272867202759,-0.18798239529132843
1412183406.638619,20.0,-0.03941595181822777,-0.011718256399035454,-0.02130592055618763,958015.0,878522696.0,1412183407.0,-0.11772000789642334,0.7848000526428223,10.830240249633789,0.2845138907432556,0.7011235356330872,-0.1822667121887207
1412183406.6485245,20.0,-0.038350656628608704,-0.012783551588654518,-0.02130592055618763,958017.0,898348033.0,1412183407.0,0.6670800447463989,0.8240400552749634,10.437840461730957,0.28832435607910156,0.6896921992301941,-0.18036149442195892
1412183406.6589382,20.0,-0.038350656628608704,-0.013848847709596157,-0.02130592055618763,958018.0,908100194.0,1412183407.0,0.5493600368499756,1.373400092124939,10.202400207519531,0.28832435607910156,0.6896921992301941,-0.18036149442195892
1412183406.6685455,20.0,-0.03941595181822777,-0.012783551588654518,-0.019175328314304352,958020.0,928461007.0,1412183407.0,0.35316002368927,0.43164002895355225,10.123920440673828,0.28133851289749146,0.6776257157325745,-0.18671225011348724
1412183406.6785233,20.0,-0.04474243149161339,-0.012783551588654518,-0.020240623503923416,958021.0,938278004.0,1412183407.0,0.15696001052856445,1.1772000789642334,11.144161224365234,0.29785048961639404,0.6852466464042664,-0.18417194485664368
1412183406.6886182,20.0,-0.036220062524080276,-0.009587664157152176,-0.020240623503923416,958022.0,948254194.0,1412183407.0,0.23544001579284668,0.6670800447463989,9.770760536193848,0.29785048961639404,0.6852466464042664,-0.18417194485664368
1412183406.6986852,20.0,-0.041546545922756195,-0.013848847709596157,-0.020240623503923416,958024.0,968256451.0,1412183407.0,0.7455600500106812,0.39240002632141113,9.92772102355957,0.29848557710647583,0.6909623146057129,-0.18861746788024902
1412183406.708804,20.0,-0.03515476733446121,-0.012783551588654518,-0.018110031262040138,958025.0,978205926.0,1412183407.0,0.35316002368927,0.70632004737854,10.16316032409668,0.29785048961639404,0.6903272867202759,-0.18544209003448486
1412183406.7184126,20.0,-0.033024176955223083,-0.010652960278093815,-0.020240623503923416,958026.0,988323026.0,1412183407.0,0.03924000263214111,0.9417600631713867,10.673280715942383,0.2762579321861267,0.6782608032226562,-0.18607717752456665
1412183406.7284577,20.0,-0.041546545922756195,-0.013848847709596157,-0.019175328314304352,958028.0,8348468.0,1412183408.0,-0.6670800447463989,0.35316002368927,10.555561065673828,0.29086464643478394,0.6884220242500305,-0.19306300580501556
1412183406.7386286,20.0,-0.033024176955223083,-0.008522368036210537,-0.020240623503923416,958029.0,18707842.0,1412183408.0,-0.39240002632141113,1.1772000789642334,10.94796085357666,0.27435269951820374,0.6782608032226562,-0.190522700548172
1412183406.748959,20.0,-0.03941595181822777,-0.013848847709596157,-0.022371215745806694,958030.0,28502006.0,1412183408.0,0.2746800184249878,0.70632004737854,10.94796085357666,0.29721540212631226,0.7011235356330872,-0.18480701744556427
1412183406.7586772,20.0,-0.030893584713339806,-0.009587664157152176,-0.02130592055618763,958032.0,48273176.0,1412183408.0,-0.2746800184249878,0.8240400552749634,10.437840461730957,0.2876892685890198,0.6903272867202759,-0.18607717752456665
1412183406.768776,20.0,-0.04048124700784683,-0.013848847709596157,-0.019175328314304352,958033.0,58225024.0,1412183408.0,0.7455600500106812,0.6670800447463989,10.477080345153809,0.2838788330554962,0.6782608032226562,-0.19179286062717438
1412183406.7786665,20.0,-0.04580772668123245,-0.013848847709596157,-0.02130592055618763,958034.0,68320340.0,1412183408.0,-0.11772000789642334,0.5886000394821167,10.869481086730957,0.299755722284317,0.6960429549217224,-0.18544209003448486
1412183406.7887673,20.0,-0.03515476733446121,-0.009587664157152176,-0.02130592055618763,958036.0,88124102.0,1412183408.0,0.47088003158569336,1.2949200868606567,10.359360694885254,0.29594525694847107,0.6915974020957947,-0.18607717752456665
1412183406.7990155,20.0,-0.04048124700784683,-0.012783551588654518,-0.02130592055618763,958037.0,98136789.0,1412183408.0,-0.15696001052856445,0.8632800579071045,9.888481140136719,0.2940400242805481,0.6954078674316406,-0.18861746788024902
1412183406.8086643,20.0,-0.030893584713339806,-0.013848847709596157,-0.020240623503923416,958039.0,118218029.0,1412183408.0,0.43164002895355225,0.47088003158569336,10.123920440673828,0.3080117106437683,0.6903272867202759,-0.18861746788024902
1412183406.8186138,20.0,-0.03941595181822777,-0.01597944088280201,-0.020240623503923416,958040.0,128229220.0,1412183408.0,0.11772000789642334,0.8632800579071045,10.2416410446167,0.28070345520973206,0.6909623146057129,-0.18353687226772308
1412183406.828608,20.0,-0.04261184111237526,-0.017044736072421074,-0.019175328314304352,958041.0,138612063.0,1412183408.0,0.0,0.9417600631713867,10.59480094909668,0.29721540212631226,0.6960429549217224,-0.20068390667438507
1412183406.8385682,20.0,-0.036220062524080276,-0.013848847709596157,-0.020240623503923416,958043.0,158439666.0,1412183408.0,0.39240002632141113,1.020240068435669,10.634040832519531,0.29912063479423523,0.6928675770759583,-0.19179286062717438
1412183406.848845,20.0,-0.03941595181822777,-0.017044736072421074,-0.020240623503923416,958044.0,168281518.0,1412183408.0,0.15696001052856445,0.9025200605392456,10.634040832519531,0.28959450125694275,0.701758623123169,-0.190522700548172
1412183406.8586662,20.0,-0.029828287661075592,-0.012783551588654518,-0.020240623503923416,958045.0,178268668.0,1412183408.0,0.35316002368927,0.9810000658035278,10.359360694885254,0.2781631350517273,0.6960429549217224,-0.190522700548172
1412183406.868615,20.0,-0.03408947214484215,-0.030893584713339806,-0.027697695419192314,958047.0,198563593.0,1412183408.0,-0.15696001052856445,0.7848000526428223,11.30112075805664,0.28197360038757324,0.6909623146057129,-0.18480701744556427
1412183406.878597,20.0,-0.04580772668123245,-0.030893584713339806,-0.006391775794327259,958048.0,208256601.0,1412183408.0,-0.19620001316070557,0.9417600631713867,10.477080345153809,0.28197360038757324,0.6909623146057129,-0.18480701744556427
1412183406.888813,20.0,-0.020240623503923416,-0.01597944088280201,-0.025567103177309036,958049.0,218447122.0,1412183408.0,0.6670800447463989,0.9025200605392456,10.398600578308105,0.29721540212631226,0.7011235356330872,-0.18861746788024902
1412183406.8986328,20.0,-0.03941595181822777,-0.005326480139046907,-0.01597944088280201,958051.0,238505979.0,1412183408.0,0.23544001579284668,1.2949200868606567,10.084680557250977,0.29594525694847107,0.7011235356330872,-0.1829017996788025
1412183406.9085143,20.0,-0.03408947214484215,0.0021305920090526342,-0.02663240022957325,958052.0,248436969.0,1412183408.0,0.5886000394821167,0.6670800447463989,9.92772102355957,0.29594525694847107,0.7011235356330872,-0.1829017996788025
1412183406.918635,20.0,-0.05859128013253212,-0.0042611840181052685,-0.013848847709596157,958053.0,258320468.0,1412183408.0,0.03924000263214111,1.2949200868606567,10.202400207519531,0.2838788330554962,0.6852466464042664,-0.18861746788024902
1412183406.9285624,20.0,-0.05646068975329399,0.0,-0.020240623503923416,958055.0,278425981.0,1412183408.0,0.39240002632141113,1.0987200736999512,10.16316032409668,0.2838788330554962,0.6884220242500305,-0.18544209003448486
1412183406.9387193,20.0,-0.04793832078576088,-0.0042611840181052685,-0.018110031262040138,958056.0,288457899.0,1412183408.0,-0.03924000263214111,1.1379600763320923,10.830240249633789,0.2838788330554962,0.6884220242500305,-0.18544209003448486
1412183406.9483907,20.0,-0.03515476733446121,-0.008522368036210537,-0.025567103177309036,958057.0,298393198.0,1412183408.0,0.43164002895355225,0.7848000526428223,10.398600578308105,0.29721540212631226,0.7011235356330872,-0.18099656701087952
1412183406.958531,20.0,-0.027697695419192314,-0.006391775794327259,-0.022371215745806694,958059.0,318375456.0,1412183408.0,0.6278400421142578,0.9417600631713867,10.2416410446167,0.2921348214149475,0.6884220242500305,-0.18353687226772308
1412183406.9689946,20.0,-0.04048124700784683,-0.017044736072421074,-0.02130592055618763,958060.0,328422208.0,1412183408.0,0.6278400421142578,1.0987200736999512,10.673280715942383,0.2921348214149475,0.6884220242500305,-0.18353687226772308
1412183406.9785101,20.0,-0.038350656628608704,-0.018110031262040138,-0.02130592055618763,958062.0,348375174.0,1412183408.0,-0.11772000789642334,0.8632800579071045,10.28088092803955,0.28197360038757324,0.6858817338943481,-0.18353687226772308
1412183406.9889402,20.0,-0.03728536143898964,-0.022371215745806694,-0.018110031262040138,958063.0,358337939.0,1412183408.0,0.11772000789642334,0.8632800579071045,10.398600578308105,0.2927698791027069,0.6903272867202759,-0.18544209003448486
1412183406.9986506,20.0,-0.030893584713339806,-0.01597944088280201,-0.020240623503923416,958064.0,368449756.0,1412183408.0,0.39240002632141113,0.8240400552749634,10.59480094909668,0.2927698791027069,0.6903272867202759,-0.18544209003448486
1412183407.0085237,20.0,-0.027697695419192314,-0.014914143830537796,-0.020240623503923416,958066.0,388391458.0,1412183408.0,0.43164002895355225,1.373400092124939,10.869481086730957,0.30166095495224,0.6915974020957947,-0.18861746788024902
1412183407.0188112,20.0,-0.036220062524080276,-0.01597944088280201,-0.02130592055618763,958067.0,398259405.0,1412183408.0,0.5886000394821167,0.9417600631713867,10.123920440673828,0.29594525694847107,0.6896921992301941,-0.18036149442195892
1412183407.0287552,20.0,-0.04474243149161339,-0.012783551588654518,-0.018110031262040138,958068.0,408246926.0,1412183408.0,0.35316002368927,1.1772000789642334,10.634040832519531,0.29086464643478394,0.6960429549217224,-0.18544209003448486
1412183407.0388136,20.0,-0.04474243149161339,-0.014914143830537796,-0.02130592055618763,958070.0,428321426.0,1412183408.0,0.11772000789642334,1.2164400815963745,10.555561065673828,0.3010258674621582,0.6903272867202759,-0.18480701744556427
1412183407.0487173,20.0,-0.04048124700784683,-0.0042611840181052685,-0.020240623503923416,958071.0,438498923.0,1412183408.0,0.43164002895355225,1.41264009475708,10.634040832519531,0.2870542109012604,0.6903272867202759,-0.18544209003448486
1412183407.0585892,20.0,-0.03408947214484215,-0.0031958878971636295,-0.022371215745806694,958072.0,448244441.0,1412183408.0,0.3139200210571289,1.1379600763320923,10.673280715942383,0.29785048961639404,0.6903272867202759,-0.18798239529132843
1412183407.0685036,20.0,-0.041546545922756195,-0.007457071915268898,-0.02130592055618763,958074.0,468403043.0,1412183408.0,0.6670800447463989,0.8240400552749634,10.359360694885254,0.29531019926071167,0.6852466464042664,-0.17845626175403595
1412183407.0789514,20.0,-0.043677136301994324,-0.009587664157152176,-0.020240623503923416,958075.0,478348387.0,1412183408.0,0.43164002895355225,1.0987200736999512,10.16316032409668,0.29022958874702454,0.6852466464042664,-0.18480701744556427
1412183407.0888584,20.0,-0.04580772668123245,-0.01597944088280201,-0.020240623503923416,958076.0,488170536.0,1412183408.0,0.6670800447463989,0.70632004737854,10.516321182250977,0.3003907799720764,0.6903272867202759,-0.18417194485664368
1412183407.0986576,20.0,-0.03408947214484215,-0.010652960278093815,-0.020240623503923416,958078.0,508441953.0,1412183408.0,0.7455600500106812,0.6278400421142578,10.28088092803955,0.29721540212631226,0.6922324895858765,-0.1911577731370926
1412183407.1085684,20.0,-0.029828287661075592,-0.014914143830537796,-0.02130592055618763,958079.0,518331265.0,1412183408.0,0.11772000789642334,0.6670800447463989,10.359360694885254,0.29594525694847107,0.6960429549217224,-0.18798239529132843
1412183407.1185977,20.0,-0.033024176955223083,-0.014914143830537796,-0.020240623503923416,958081.0,538219898.0,1412183408.0,0.11772000789642334,0.7848000526428223,10.477080345153809,0.28895944356918335,0.6973130702972412,-0.1822667121887207
1412183407.1284401,20.0,-0.03728536143898964,-0.018110031262040138,-0.020240623503923416,958082.0,548432591.0,1412183408.0,0.3139200210571289,0.9025200605392456,10.16316032409668,0.29022958874702454,0.6884220242500305,-0.18417194485664368
1412183407.1391854,20.0,-0.04261184111237526,-0.019175328314304352,-0.019175328314304352,958083.0,558524569.0,1412183408.0,0.03924000263214111,1.05948007106781,10.634040832519531,0.29086464643478394,0.69350266456604,-0.18798239529132843
1412183407.1486082,20.0,-0.036220062524080276,-0.011718256399035454,-0.020240623503923416,958085.0,578141138.0,1412183408.0,0.11772000789642334,1.2949200868606567,10.987200736999512,0.29531019926071167,0.6903272867202759,-0.18036149442195892
1412183407.1585462,20.0,-0.03515476733446121,-0.009587664157152176,-0.020240623503923416,958086.0,588243636.0,1412183408.0,0.03924000263214111,1.0987200736999512,10.555561065673828,0.2940400242805481,0.6852466464042664,-0.18734732270240784
1412183407.1688154,20.0,-0.03515476733446121,-0.006391775794327259,-0.018110031262040138,958087.0,598123437.0,1412183408.0,0.6670800447463989,0.9025200605392456,10.359360694885254,0.29785048961639404,0.6852466464042664,-0.18607717752456665
1412183407.178572,20.0,-0.04474243149161339,-0.011718256399035454,-0.020240623503923416,958089.0,618363671.0,1412183408.0,0.5886000394821167,0.7848000526428223,9.966960906982422,0.2921348214149475,0.6922324895858765,-0.18544209003448486
1412183407.1884034,20.0,-0.04580772668123245,-0.009587664157152176,-0.020240623503923416,958090.0,628274119.0,1412183408.0,0.39240002632141113,0.7455600500106812,10.59480094909668,0.2921348214149475,0.6922324895858765,-0.18544209003448486
1412183407.198674,20.0,-0.04261184111237526,-0.009587664157152176,-0.020240623503923416,958091.0,638430293.0,1412183408.0,0.9025200605392456,0.9025200605392456,10.516321182250977,0.2921348214149475,0.69350266456604,-0.18798239529132843
1412183407.208644,20.0,-0.03515476733446121,-0.011718256399035454,-0.02130592055618763,958093.0,658189671.0,1412183408.0,0.2746800184249878,0.8240400552749634,10.202400207519531,0.3022960126399994,0.6954078674316406,-0.18861746788024902
1412183407.2186925,20.0,-0.033024176955223083,-0.010652960278093815,-0.020240623503923416,958094.0,668422727.0,1412183408.0,0.23544001579284668,1.1772000789642334,10.59480094909668,0.3022960126399994,0.6954078674316406,-0.18861746788024902
1412183407.2288585,20.0,-0.03515476733446121,-0.014914143830537796,-0.020240623503923416,958095.0,678221676.0,1412183408.0,0.8240400552749634,0.8240400552749634,10.2416410446167,0.29086464643478394,0.69350266456604,-0.18036149442195892
1412183407.23876,20.0,-0.03728536143898964,-0.014914143830537796,-0.019175328314304352,958097.0,698425428.0,1412183408.0,0.19620001316070557,0.70632004737854,10.398600578308105,0.2921348214149475,0.69350266456604,-0.18417194485664368
1412183407.2485743,20.0,-0.03728536143898964,-0.014914143830537796,-0.020240623503923416,958098.0,708373329.0,1412183408.0,0.7455600500106812,0.9025200605392456,10.359360694885254,0.2921348214149475,0.69350266456604,-0.18417194485664368
1412183407.2589328,20.0,-0.03515476733446121,-0.012783551588654518,-0.02130592055618763,958100.0,728294167.0,1412183408.0,0.11772000789642334,1.373400092124939,10.477080345153809,0.29912063479423523,0.6903272867202759,-0.18480701744556427
1412183407.2686741,20.0,-0.03408947214484215,-0.011718256399035454,-0.02130592055618763,958101.0,738372355.0,1412183408.0,0.0,1.1772000789642334,10.712520599365234,0.2946751117706299,0.6909623146057129,-0.1822667121887207
1412183407.2787356,20.0,-0.038350656628608704,-0.011718256399035454,-0.02130592055618763,958102.0,748318393.0,1412183408.0,0.6670800447463989,1.0987200736999512,10.2416410446167,0.2946751117706299,0.6909623146057129,-0.1822667121887207
1412183407.2886496,20.0,-0.04261184111237526,-0.011718256399035454,-0.020240623503923416,958104.0,768127013.0,1412183408.0,0.5886000394821167,1.373400092124939,10.2416410446167,0.3003907799720764,0.6928675770759583,-0.18861746788024902
1412183407.2987056,20.0,-0.04261184111237526,-0.010652960278093815,-0.02130592055618763,958105.0,778424577.0,1412183408.0,0.2746800184249878,0.8240400552749634,10.2416410446167,0.29022958874702454,0.6909623146057129,-0.18353687226772308
1412183407.3087704,20.0,-0.04048124700784683,-0.009587664157152176,-0.020240623503923416,958106.0,788457058.0,1412183408.0,0.11772000789642334,1.4518800973892212,10.555561065673828,0.29022958874702454,0.6909623146057129,-0.18353687226772308
1412183407.3186245,20.0,-0.038350656628608704,-0.010652960278093815,-0.020240623503923416,958108.0,808403684.0,1412183408.0,0.11772000789642334,0.8632800579071045,10.437840461730957,0.29086464643478394,0.6998534202575684,-0.18798239529132843
1412183407.3285446,20.0,-0.03941595181822777,-0.012783551588654518,-0.02130592055618763,958109.0,818348449.0,1412183408.0,0.23544001579284668,1.020240068435669,10.477080345153809,0.29022958874702454,0.6903272867202759,-0.18353687226772308
1412183407.3388257,20.0,-0.038350656628608704,-0.012783551588654518,-0.019175328314304352,958110.0,828486717.0,1412183408.0,0.15696001052856445,1.2949200868606567,10.437840461730957,0.29022958874702454,0.6903272867202759,-0.18353687226772308
1412183407.3485785,20.0,-0.03728536143898964,-0.01597944088280201,-0.019175328314304352,958112.0,848339887.0,1412183408.0,0.43164002895355225,1.1379600763320923,10.94796085357666,0.28324374556541443,0.6947727799415588,-0.1829017996788025
1412183407.358351,20.0,-0.03515476733446121,-0.013848847709596157,-0.019175328314304352,958113.0,858382332.0,1412183408.0,0.07848000526428223,1.3341600894927979,10.791000366210938,0.2946751117706299,0.6960429549217224,-0.17909133434295654
1412183407.36871,20.0,-0.033024176955223083,-0.013848847709596157,-0.020240623503923416,958114.0,868480674.0,1412183408.0,0.43164002895355225,1.05948007106781,10.359360694885254,0.299755722284317,0.6928675770759583,-0.1892525553703308
1412183407.378832,20.0,-0.03728536143898964,-0.013848847709596157,-0.020240623503923416,958116.0,888613091.0,1412183408.0,0.23544001579284668,0.9417600631713867,10.202400207519531,0.29785048961639404,0.6852466464042664,-0.18861746788024902
1412183407.3882682,20.0,-0.03941595181822777,-0.013848847709596157,-0.020240623503923416,958117.0,898367065.0,1412183408.0,-0.07848000526428223,1.373400092124939,10.987200736999512,0.2845138907432556,0.6896921992301941,-0.18544209003448486
1412183407.3989787,20.0,-0.041546545922756195,-0.013848847709596157,-0.018110031262040138,958118.0,908230303.0,1412183408.0,0.2746800184249878,1.020240068435669,10.673280715942383,0.3029311001300812,0.6903272867202759,-0.18353687226772308
1412183407.408664,20.0,-0.038350656628608704,-0.009587664157152176,-0.020240623503923416,958120.0,928267732.0,1412183408.0,0.9417600631713867,1.020240068435669,10.516321182250977,0.2934049665927887,0.6903272867202759,-0.18099656701087952
1412183407.4183013,20.0,-0.03941595181822777,-0.010652960278093815,-0.02130592055618763,958121.0,938321224.0,1412183408.0,0.39240002632141113,1.4518800973892212,10.830240249633789,0.28832435607910156,0.701758623123169,-0.18544209003448486
1412183407.4284647,20.0,-0.038350656628608704,-0.010652960278093815,-0.020240623503923416,958122.0,948220651.0,1412183408.0,0.47088003158569336,1.1379600763320923,10.477080345153809,0.3003907799720764,0.6903272867202759,-0.17845626175403595
1412183407.4387321,20.0,-0.04048124700784683,-0.011718256399035454,-0.019175328314304352,958124.0,968363221.0,1412183408.0,0.8240400552749634,0.8632800579071045,10.320120811462402,0.3010258674621582,0.6909623146057129,-0.1829017996788025
1412183407.4485848,20.0,-0.03941595181822777,-0.012783551588654518,-0.019175328314304352,958125.0,978271664.0,1412183408.0,0.11772000789642334,0.8632800579071045,10.712520599365234,0.2927698791027069,0.6903272867202759,-0.1816316395998001
1412183407.4589942,20.0,-0.03728536143898964,-0.012783551588654518,-0.020240623503923416,958127.0,998365123.0,1412183408.0,0.11772000789642334,1.5303601026535034,10.59480094909668,0.2921348214149475,0.6858817338943481,-0.1829017996788025
1412183407.4686587,20.0,-0.03515476733446121,-0.014914143830537796,-0.02130592055618763,958128.0,8402839.0,1412183409.0,0.7455600500106812,1.373400092124939,10.94796085357666,0.2946751117706299,0.6922324895858765,-0.1911577731370926
1412183407.4785962,20.0,-0.036220062524080276,-0.013848847709596157,-0.02130592055618763,958129.0,18194291.0,1412183409.0,0.43164002895355225,1.0987200736999512,10.28088092803955,0.29785048961639404,0.6852466464042664,-0.18861746788024902
1412183407.488715,20.0,-0.038350656628608704,-0.01597944088280201,-0.020240623503923416,958131.0,38382958.0,1412183409.0,0.23544001579284668,1.05948007106781,10.751760482788086,0.29721540212631226,0.7011235356330872,-0.18671225011348724
1412183407.4988055,20.0,-0.038350656628608704,-0.014914143830537796,-0.020240623503923416,958132.0,48156050.0,1412183409.0,0.2746800184249878,1.2164400815963745,10.712520599365234,0.3010258674621582,0.7062041759490967,-0.18671225011348724
1412183407.5085752,20.0,-0.036220062524080276,-0.013848847709596157,-0.020240623503923416,958133.0,58517955.0,1412183409.0,0.15696001052856445,1.020240068435669,10.673280715942383,0.29721540212631226,0.6960429549217224,-0.18417194485664368
1412183407.5189552,20.0,-0.03941595181822777,-0.010652960278093815,-0.020240623503923416,958135.0,78358158.0,1412183409.0,0.3139200210571289,1.4911201000213623,10.712520599365234,0.29721540212631226,0.69350266456604,-0.18671225011348724
1412183407.5283475,20.0,-0.038350656628608704,-0.010652960278093815,-0.020240623503923416,958136.0,88254200.0,1412183409.0,0.19620001316070557,1.2949200868606567,10.516321182250977,0.29721540212631226,0.69350266456604,-0.18671225011348724
1412183407.539165,20.0,-0.03941595181822777,-0.011718256399035454,-0.020240623503923416,958137.0,98387343.0,1412183409.0,0.07848000526428223,1.0987200736999512,10.59480094909668,0.2934049665927887,0.6960429549217224,-0.1829017996788025
1412183407.5488162,20.0,-0.038350656628608704,-0.009587664157152176,-0.020240623503923416,958139.0,118455101.0,1412183409.0,0.43164002895355225,0.7455600500106812,10.751760482788086,0.2927698791027069,0.6903272867202759,-0.18480701744556427
1412183407.55862,20.0,-0.038350656628608704,-0.010652960278093815,-0.020240623503923416,958140.0,128342619.0,1412183409.0,0.2746800184249878,1.2164400815963745,10.477080345153809,0.2927698791027069,0.6903272867202759,-0.18480701744556427
1412183407.568501,20.0,-0.038350656628608704,-0.012783551588654518,-0.020240623503923416,958141.0,138491663.0,1412183409.0,0.5101200342178345,0.9810000658035278,10.320120811462402,0.29785048961639404,0.6903272867202759,-0.18099656701087952
1412183407.5787475,20.0,-0.03728536143898964,-0.012783551588654518,-0.020240623503923416,958143.0,158300606.0,1412183409.0,0.9810000658035278,1.0987200736999512,10.712520599365234,0.2921348214149475,0.6985832452774048,-0.18353687226772308
1412183407.5885088,20.0,-0.03728536143898964,-0.013848847709596157,-0.020240623503923416,958144.0,168590654.0,1412183409.0,0.5493600368499756,0.9417600631713867,10.398600578308105,0.2921348214149475,0.6985832452774048,-0.18353687226772308
1412183407.598992,20.0,-0.036220062524080276,-0.011718256399035454,-0.019175328314304352,958146.0,188324087.0,1412183409.0,0.43164002895355225,1.4518800973892212,10.359360694885254,0.299755722284317,0.6922324895858765,-0.18480701744556427
1412183407.6085534,20.0,-0.036220062524080276,-0.013848847709596157,-0.019175328314304352,958147.0,198389801.0,1412183409.0,0.7848000526428223,0.7455600500106812,10.634040832519531,0.29594525694847107,0.6960429549217224,-0.18734732270240784
1412183407.6186848,20.0,-0.038350656628608704,-0.012783551588654518,-0.020240623503923416,958148.0,208519984.0,1412183409.0,0.7848000526428223,0.9810000658035278,10.2416410446167,0.29594525694847107,0.6960429549217224,-0.18734732270240784
1412183407.628669,20.0,-0.038350656628608704,-0.012783551588654518,-0.020240623503923416,958150.0,228165148.0,1412183409.0,-0.03924000263214111,1.4518800973892212,10.634040832519531,0.3035661578178406,0.6915974020957947,-0.18671225011348724
1412183407.6388476,20.0,-0.038350656628608704,-0.012783551588654518,-0.020240623503923416,958151.0,238463161.0,1412183409.0,0.43164002895355225,1.1379600763320923,10.320120811462402,0.29785048961639404,0.6903272867202759,-0.18353687226772308
1412183407.6483924,20.0,-0.03941595181822777,-0.011718256399035454,-0.020240623503923416,958152.0,248322297.0,1412183409.0,0.3139200210571289,1.05948007106781,10.398600578308105,0.29785048961639404,0.6903272867202759,-0.18353687226772308
1412183407.6586316,20.0,-0.038350656628608704,-0.010652960278093815,-0.019175328314304352,958154.0,268226583.0,1412183409.0,0.9417600631713867,0.70632004737854,10.006200790405273,0.29721540212631226,0.6877869367599487,-0.1892525553703308
1412183407.668511,20.0,-0.038350656628608704,-0.010652960278093815,-0.020240623503923416,958155.0,278389561.0,1412183409.0,0.03924000263214111,1.020240068435669,10.437840461730957,0.3003907799720764,0.6903272867202759,-0.18417194485664368
1412183407.6786182,20.0,-0.038350656628608704,-0.011718256399035454,-0.02130592055618763,958156.0,288497379.0,1412183409.0,1.05948007106781,0.6278400421142578,9.92772102355957,0.3003907799720764,0.6903272867202759,-0.1829017996788025
1412183407.6886332,20.0,-0.038350656628608704,-0.013848847709596157,-0.019175328314304352,958158.0,308424158.0,1412183409.0,0.0,1.373400092124939,11.026440620422363,0.3003907799720764,0.6903272867202759,-0.18353687226772308
1412183407.6989605,20.0,-0.03941595181822777,-0.013848847709596157,-0.02130592055618763,958159.0,318484365.0,1412183409.0,-0.07848000526428223,0.9417600631713867,10.555561065673828,0.3035661578178406,0.6903272867202759,-0.1816316395998001
1412183407.7084415,20.0,-0.03728536143898964,-0.013848847709596157,-0.020240623503923416,958160.0,328206605.0,1412183409.0,0.39240002632141113,0.9810000658035278,10.634040832519531,0.29022958874702454,0.6903272867202759,-0.1822667121887207
1412183407.7186081,20.0,-0.036220062524080276,-0.011718256399035454,-0.019175328314304352,958162.0,348394656.0,1412183409.0,0.15696001052856445,1.4911201000213623,10.791000366210938,0.29531019926071167,0.6903272867202759,-0.18861746788024902
1412183407.7287164,20.0,-0.036220062524080276,-0.012783551588654518,-0.020240623503923416,958163.0,358419424.0,1412183409.0,0.3139200210571289,0.8240400552749634,10.2416410446167,0.2940400242805481,0.6852466464042664,-0.18099656701087952
1412183407.738592,20.0,-0.038350656628608704,-0.011718256399035454,-0.020240623503923416,958165.0,378439145.0,1412183409.0,0.39240002632141113,0.9417600631713867,10.59480094909668,0.3035661578178406,0.6922324895858765,-0.18671225011348724
1412183407.74849,20.0,-0.03941595181822777,-0.012783551588654518,-0.020240623503923416,958166.0,388514266.0,1412183409.0,0.03924000263214111,1.2556800842285156,10.359360694885254,0.29721540212631226,0.69350266456604,-0.18671225011348724
1412183407.7587943,20.0,-0.038350656628608704,-0.010652960278093815,-0.020240623503923416,958167.0,398484937.0,1412183409.0,0.2746800184249878,1.05948007106781,10.830240249633789,0.2934049665927887,0.6833414435386658,-0.18671225011348724
1412183407.7689042,20.0,-0.038350656628608704,-0.010652960278093815,-0.020240623503923416,958169.0,418452482.0,1412183409.0,0.8632800579071045,0.9810000658035278,10.28088092803955,0.2946751117706299,0.6928675770759583,-0.18544209003448486
1412183407.7785866,20.0,-0.038350656628608704,-0.011718256399035454,-0.019175328314304352,958170.0,428560119.0,1412183409.0,-0.03924000263214111,1.1379600763320923,10.987200736999512,0.2914997339248657,0.6896921992301941,-0.18417194485664368
1412183407.7883813,20.0,-0.038350656628608704,-0.011718256399035454,-0.020240623503923416,958171.0,438201319.0,1412183409.0,0.15696001052856445,1.1772000789642334,10.320120811462402,0.29912063479423523,0.6903272867202759,-0.18544209003448486
1412183407.7986522,20.0,-0.03941595181822777,-0.011718256399035454,-0.020240623503923416,958173.0,458482486.0,1412183409.0,0.03924000263214111,1.020240068435669,10.202400207519531,0.3010258674621582,0.6903272867202759,-0.18036149442195892
1412183407.8086307,20.0,-0.03941595181822777,-0.012783551588654518,-0.019175328314304352,958174.0,468255926.0,1412183409.0,0.47088003158569336,1.0987200736999512,10.320120811462402,0.29785048961639404,0.6852466464042664,-0.18861746788024902
1412183407.818405,20.0,-0.03941595181822777,-0.011718256399035454,-0.02130592055618763,958175.0,478372894.0,1412183409.0,0.35316002368927,1.3341600894927979,10.59480094909668,0.30483633279800415,0.7062041759490967,-0.18607717752456665
1412183407.828737,20.0,-0.03728536143898964,-0.011718256399035454,-0.020240623503923416,958177.0,498444477.0,1412183409.0,0.39240002632141113,1.1379600763320923,10.16316032409668,0.2921348214149475,0.6877869367599487,-0.18036149442195892
1412183407.8386865,20.0,-0.03728536143898964,-0.012783551588654518,-0.020240623503923416,958178.0,508269087.0,1412183409.0,0.0,1.0987200736999512,10.516321182250977,0.2921348214149475,0.6877869367599487,-0.18036149442195892
1412183407.848256,20.0,-0.03728536143898964,-0.012783551588654518,-0.020240623503923416,958179.0,518426683.0,1412183409.0,0.23544001579284668,0.9417600631713867,10.359360694885254,0.29022958874702454,0.6903272867202759,-0.18353687226772308
1412183407.8587694,20.0,-0.03941595181822777,-0.012783551588654518,-0.019175328314304352,958181.0,538371936.0,1412183409.0,0.6278400421142578,0.8240400552749634,10.634040832519531,0.30166095495224,0.6846115589141846,-0.18861746788024902
1412183407.8689344,20.0,-0.038350656628608704,-0.011718256399035454,-0.020240623503923416,958182.0,548165992.0,1412183409.0,0.23544001579284668,1.020240068435669,10.555561065673828,0.30166095495224,0.6846115589141846,-0.18861746788024902
1412183407.8786728,20.0,-0.038350656628608704,-0.012783551588654518,-0.02130592055618763,958184.0,568437473.0,1412183409.0,0.03924000263214111,1.373400092124939,10.830240249633789,0.30166095495224,0.6922324895858765,-0.18734732270240784
1412183407.8884668,20.0,-0.038350656628608704,-0.011718256399035454,-0.02130592055618763,958185.0,578479499.0,1412183409.0,0.35316002368927,1.2556800842285156,10.791000366210938,0.3029311001300812,0.6903272867202759,-0.1892525553703308
1412183407.898542,20.0,-0.03941595181822777,-0.012783551588654518,-0.020240623503923416,958186.0,588247249.0,1412183409.0,0.19620001316070557,0.8240400552749634,10.477080345153809,0.3029311001300812,0.6903272867202759,-0.1892525553703308
1412183407.9082692,20.0,-0.04048124700784683,-0.011718256399035454,-0.020240623503923416,958188.0,608483794.0,1412183409.0,0.47088003158569336,0.9025200605392456,10.320120811462402,0.2946751117706299,0.69350266456604,-0.1829017996788025
1412183407.9184113,20.0,-0.03941595181822777,-0.011718256399035454,-0.02130592055618763,958189.0,618388218.0,1412183409.0,0.15696001052856445,1.3341600894927979,10.320120811462402,0.29785048961639404,0.6896921992301941,-0.18480701744556427
1412183407.92866,20.0,-0.038350656628608704,-0.010652960278093815,-0.020240623503923416,958190.0,628437071.0,1412183409.0,0.47088003158569336,1.1772000789642334,10.28088092803955,0.29785048961639404,0.6896921992301941,-0.18480701744556427
1412183407.938433,20.0,-0.03728536143898964,-0.012783551588654518,-0.019175328314304352,958192.0,648375565.0,1412183409.0,0.6278400421142578,1.1379600763320923,10.516321182250977,0.2934049665927887,0.6903272867202759,-0.18544209003448486
1412183407.948465,20.0,-0.03941595181822777,-0.012783551588654518,-0.020240623503923416,958193.0,658415895.0,1412183409.0,0.23544001579284668,1.5303601026535034,10.94796085357666,0.29086464643478394,0.6960429549217224,-0.18353687226772308
1412183407.958543,20.0,-0.04048124700784683,-0.012783551588654518,-0.020240623503923416,958194.0,668324569.0,1412183409.0,0.6278400421142578,0.9025200605392456,10.084680557250977,0.29086464643478394,0.6960429549217224,-0.18353687226772308
1412183407.9684007,20.0,-0.038350656628608704,-0.012783551588654518,-0.019175328314304352,958196.0,688325006.0,1412183409.0,-0.07848000526428223,1.373400092124939,10.555561065673828,0.29531019926071167,0.69350266456604,-0.18036149442195892
1412183407.978497,20.0,-0.036220062524080276,-0.011718256399035454,-0.02130592055618763,958197.0,698350191.0,1412183409.0,0.19620001316070557,1.373400092124939,10.437840461730957,0.29531019926071167,0.6903272867202759,-0.18353687226772308
1412183407.9884763,20.0,-0.036220062524080276,-0.011718256399035454,-0.02130592055618763,958198.0,708650472.0,1412183409.0,-0.03924000263214111,1.2164400815963745,10.59480094909668,0.2934049665927887,0.7011235356330872,-0.18607717752456665
1412183407.998664,20.0,-0.038350656628608704,-0.012783551588654518,-0.020240623503923416,958200.0,728399191.0,1412183409.0,0.2746800184249878,0.9810000658035278,10.59480094909668,0.30483633279800415,0.6928675770759583,-0.18099656701087952
1412183408.008534,20.0,-0.04048124700784683,-0.011718256399035454,-0.020240623503923416,958201.0,738526114.0,1412183409.0,0.39240002632141113,0.70632004737854,10.320120811462402,0.2934049665927887,0.6884220242500305,-0.18544209003448486
1412183408.0188963,20.0,-0.03941595181822777,-0.012783551588654518,-0.020240623503923416,958203.0,758298462.0,1412183409.0,0.23544001579284668,1.1379600763320923,10.908720970153809,0.2946751117706299,0.6915974020957947,-0.18417194485664368
1412183408.0287328,20.0,-0.036220062524080276,-0.011718256399035454,-0.020240623503923416,958204.0,768437759.0,1412183409.0,0.47088003158569336,1.2164400815963745,10.477080345153809,0.29086464643478394,0.6992183327674866,-0.1829017996788025
1412183408.0387304,20.0,-0.03515476733446121,-0.010652960278093815,-0.02130592055618763,958205.0,778352491.0,1412183409.0,0.23544001579284668,1.020240068435669,10.123920440673828,0.2838788330554962,0.6992183327674866,-0.1816316395998001
1412183408.048525,20.0,-0.038350656628608704,-0.011718256399035454,-0.019175328314304352,958207.0,798192791.0,1412183409.0,0.47088003158569336,1.05948007106781,10.477080345153809,0.2946751117706299,0.6909623146057129,-0.18798239529132843
1412183408.0584037,20.0,-0.04048124700784683,-0.013848847709596157,-0.019175328314304352,958208.0,808394161.0,1412183409.0,0.6670800447463989,1.1379600763320923,10.202400207519531,0.2934049665927887,0.6852466464042664,-0.18417194485664368
1412183408.0685563,20.0,-0.03941595181822777,-0.013848847709596157,-0.02130592055618763,958209.0,818427597.0,1412183409.0,0.5886000394821167,1.020240068435669,10.16316032409668,0.2927698791027069,0.6903272867202759,-0.18353687226772308
1412183408.0786493,20.0,-0.036220062524080276,-0.011718256399035454,-0.02130592055618763,958211.0,838405514.0,1412183409.0,0.07848000526428223,1.2949200868606567,10.712520599365234,0.2946751117706299,0.6877869367599487,-0.18734732270240784
1412183408.0883563,20.0,-0.03515476733446121,-0.012783551588654518,-0.020240623503923416,958212.0,848384196.0,1412183409.0,0.8632800579071045,0.9417600631713867,9.8100004196167,0.2870542109012604,0.6877869367599487,-0.18544209003448486
1412183408.0983632,20.0,-0.03728536143898964,-0.012783551588654518,-0.019175328314304352,958213.0,858600681.0,1412183409.0,0.70632004737854,0.7455600500106812,10.084680557250977,0.2927698791027069,0.6903272867202759,-0.18671225011348724
1412183408.10837,20.0,-0.04048124700784683,-0.012783551588654518,-0.019175328314304352,958215.0,878442544.0,1412183409.0,0.19620001316070557,1.0987200736999512,10.202400207519531,0.3035661578178406,0.6960429549217224,-0.1829017996788025
1412183408.1184201,20.0,-0.041546545922756195,-0.012783551588654518,-0.020240623503923416,958216.0,888437082.0,1412183409.0,0.2746800184249878,1.020240068435669,10.555561065673828,0.3003907799720764,0.6973130702972412,-0.18480701744556427
1412183408.1284606,20.0,-0.03941595181822777,-0.011718256399035454,-0.02130592055618763,958217.0,898420026.0,1412183409.0,0.39240002632141113,0.9810000658035278,9.770760536193848,0.3003907799720764,0.6903272867202759,-0.18544209003448486
